BMI160_accelerometer.x,BMI160_accelerometer.y,BMI160_accelerometer.z,BMI160_gyroscope.x,BMI160_gyroscope.y,BMI160_gyroscope.z
0.0,0.0,0.0,0.0,0.0,0.0
0.0,0.0,0.0,0.0,0.0,0.0
0.0,0.0,0.0,0.0,0.0,0.0
-1.5471827,4.497847,8.013736,-0.22295348,-0.33494428,0.0761204
-1.7818946,4.282295,8.229287,-0.2847388,-0.6246962,0.03564035
-1.3939015,4.3541455,8.650811,-0.34332836,-0.9900819,0.073989876
-1.2022998,4.157754,8.54064,-0.33001256,-1.1370884,0.012737165
-0.68018556,4.033213,8.449629,-0.34279573,-1.3858277,-0.010698653
-0.5748047,4.133804,8.277188,-0.31456622,-1.4369603,-0.006437595
-0.38320315,4.1002736,8.267608,-0.25544405,-1.3703812,0.034042455
-0.10538086,3.8272414,8.5598,-0.19578923,-1.5509436,0.037238248
0.21555176,3.5637891,8.425679,-0.12281863,-1.8204556,-0.046917643
0.6945557,3.415298,8.008945,0.03324262,-2.0399,-0.24026315
0.39757326,3.0799952,7.7311234,0.15042171,-2.3680015,-0.4133686
0.27303225,2.3327491,7.8508744,0.05188475,-3.5674894,-0.6349436
0.4742139,1.9208057,7.5970025,-0.23839982,-5.127036,-0.9507945
1.3891114,1.7818946,7.199429,-0.6346782,-6.4996295,-1.2655802
1.6860938,2.1076174,6.7970657,-0.9851502,-7.1542344,-1.4413488
2.4141798,2.663262,6.471343,-1.4911507,-7.5340014,-1.2842224
3.8703518,4.311035,5.503755,-2.0482843,-7.8194923,-0.65678155
2.1076174,4.3014555,3.0129347,-2.1612022,-7.4253445,0.3440344
5.3121533,3.7458107,-0.07185059,-1.7974143,-5.215453,1.0897195
7.3622904,2.2177882,3.5925295,-0.76677096,-0.15331668,1.6718866
8.890313,0.48379397,4.2248144,-0.8264258,-0.73921216,1.9983901
10.044712,-0.89573735,4.023633,-1.5524035,-1.0140504,1.8433942
10.504556,-0.488584,3.7601807,-1.9082018,-1.4215139,1.7054424
10.241104,-0.8861573,3.8368216,-2.1398969,-0.8846207,1.5136948
10.672208,-1.0681788,4.2056546,-2.3364382,-0.61351097,1.2809345
9.359736,-0.7951465,4.2008643,-1.8682544,0.1870353,1.2452481
8.243657,-1.1400293,2.2752686,-1.3249695,0.57638943,1.6527117
7.4054008,-3.2811768,2.1603076,-1.8176544,0.46826512,1.9318111
8.305928,-3.8655617,1.3172607,-2.2698593,1.2107545,1.9270173
10.260264,-5.609136,1.4944923,-2.92766,2.1002502,1.5142274
10.676997,-7.5395217,2.682422,-4.012632,1.8589679,0.8974393
10.475816,-6.950347,4.9241605,-4.782285,1.0024953,0.91341823
11.194322,-6.0258694,6.959927,-4.718902,0.30261648,1.0737406
11.256593,-6.327642,7.462881,-4.3982577,-0.36210853,1.2942502
11.893667,-7.175479,7.2760696,-4.134072,-0.7338858,1.3693514
11.893667,-7.175479,7.2760696,-4.134072,-0.7338858,1.3693514
11.893667,-7.175479,7.2760696,-4.134072,-0.7338858,1.3693514
18.537453,-5.1157618,4.7086086,-2.911681,-3.5451188,-1.2235023
17.234562,-4.009263,3.779341,-2.8211336,-3.5120957,-1.4631867
17.234562,-4.009263,3.779341,-2.8211336,-3.5120957,-1.4631867
17.234562,-4.009263,3.779341,-2.8211336,-3.5120957,-1.4631867
17.234562,-4.009263,3.779341,-2.8211336,-3.5120957,-1.4631867
17.234562,-4.009263,3.779341,-2.8211336,-3.5120957,-1.4631867
17.234562,-4.009263,3.779341,-2.8211336,-3.5120957,-1.4631867
9.426797,-2.8357031,-5.7767873,-2.8578851,-1.1599915,-1.8988799
3.5973196,2.3950195,1.585503,-1.359058,-0.42176333,-0.5699625
6.241421,-0.05748047,-2.9506643,-0.7459983,-0.5304203,0.060674068
6.4186525,-0.1341211,-2.787803,-0.6133729,-0.59699935,-0.0027091692
4.8666797,-0.46942386,-0.74724615,-0.094589114,-1.0247029,0.21247424
7.913145,-2.6441016,-3.1997461,0.21060915,-1.3581307,0.18158157
8.52148,-2.0357666,-3.999683,-0.05783749,-1.0326924,-0.09006085
9.081915,-2.1028273,-3.439248,-0.44239795,-0.6167067,-0.12255142
8.598121,-1.0729688,-2.5818312,-0.42162532,-0.4675697,0.13524257
9.101074,-1.6477735,-3.3530276,-0.1041765,-0.37862012,0.38131866
9.0004835,-2.811753,-4.488267,-0.062098548,-0.28008318,0.1986258
8.344249,-2.936294,-3.9901028,-0.2543788,0.036833026,0.14536259
9.532178,-2.0070264,-3.1183155,-0.013629016,0.56307364,0.11127413
10.039923,-3.032095,-5.360054,0.06253739,0.20621008,0.18051632
9.148975,-3.4871485,-4.9624805,0.10514797,0.012331941,0.5538915
10.715318,-2.7255323,-3.3673975,0.5637443,-0.26144105,0.69344115
9.350157,-0.12454102,-16.923208,-0.42109266,-0.98688614,-0.3883349
-3.4823585,-5.4606447,-1.4992822,-0.68154985,-0.14426193,0.100621484
3.391348,-6.2941117,1.6765138,-0.34758943,1.1835903,2.0122385
14.245577,-5.240303,0.75203615,-0.06849014,0.021386689,1.5099664
12.660074,-5.130132,-2.42855,-0.06263118,-0.1421314,1.164288
9.287886,-4.311035,-2.3566992,0.21753336,-0.5400077,1.391722
7.1419487,-5.087022,-4.1002736,0.6793255,-0.9613198,2.0425985
5.0199614,-5.5612354,-5.3169436,0.9829259,-1.7517459,3.0189135
6.935977,-6.1647806,-5.9204884,1.0138186,-0.6928731,3.1712463
8.224498,-8.066426,-5.5516553,0.5115464,0.073584646,2.8367531
7.4772515,-6.6246243,-4.3014555,0.0034152158,0.39635977,2.0026512
7.1563187,-5.350474,-4.775669,0.00448048,0.37984815,1.496118
7.2329593,-3.5973196,-3.9469924,0.029514195,-0.099520825,1.3858631
8.095166,-3.9374123,-3.4679885,0.13976906,-0.3882075,1.4055704
7.783814,-4.90979,-5.0726514,0.27718818,-0.69606894,0.7701402
5.709727,-5.470225,-5.958809,-0.046119582,-0.3482601,0.61940527
6.1887307,-6.4138627,-6.0210795,-0.11216598,0.07038885,0.9059614
6.758745,-6.935977,-4.88584,-0.053043798,0.41393661,0.8276645
6.7539554,-6.5623536,-4.7229786,0.018328918,0.697297,0.6156768
7.6353226,-7.103628,-4.4691067,-0.1473197,0.9785268,-0.095387176
5.7719975,-7.5155716,-1.8489552,-0.14465654,0.75801706,-0.46024024
10.93087,-6.557564,-2.8836036,-0.15371129,-0.012701773,-1.2852876
7.697593,-6.672525,-4.0523734,-0.1340039,-0.13041349,-2.014461
5.2594633,-10.614727,-5.5372853,-0.8067184,-0.01163651,-2.9375126
7.6496925,-5.9540186,-4.248765,-1.1614515,0.10500995,-3.439785
4.9002104,-4.373306,-0.8334668,-0.6794193,-0.39353383,-3.235254
7.6401124,-5.0678616,-4.033213,0.025785768,-0.6987321,-2.252015
3.6548,-2.5195606,-3.7506008,-0.13293864,-0.31736743,-0.7973965
7.8029737,-4.2343946,-4.761299,-0.0013784744,-0.2214936,0.0612067
8.636441,-4.6894484,-5.3025737,0.22339232,-0.23214625,0.5208683
7.553892,-4.512217,-4.550537,0.55788535,-0.40525174,1.3571008
2.6967921,-5.0199614,-2.907554,0.56907064,-0.3685001,2.3776243
0.9484278,-6.437813,-4.7708793,0.19942388,0.41393661,2.8484712
1.9974464,-7.3958206,-4.8331494,0.11580061,1.7923889,2.7126498
8.899893,-6.912027,-4.009263,0.5190032,2.2211578,2.0138364
9.948912,-4.2918754,-5.5803957,0.5003611,1.1526976,0.4447019
8.717872,-2.7542725,-4.148174,0.49982846,1.698113,0.4367124
9.278306,-2.9410841,-3.774551,0.5589506,2.4517875,0.86388344
11.611055,-5.982759,-4.382886,0.3597462,2.5955982,0.8905151
9.867481,-6.423443,0.028740235,0.22818601,2.1657639,0.74510646
6.821016,-4.5840673,-0.33530274,0.066265814,1.1601545,1.659636
8.037686,-7.8987746,-2.7255323,-0.13933022,1.281062,1.8135667
6.6821046,-10.336905,-2.318379,-0.20377873,1.3295314,0.89850456
3.0368848,-9.144185,-2.064507,-0.13027547,0.7878445,0.9091572
1.8920655,-8.775352,-0.6658155,0.37093145,0.032039333,1.3096967
1.8537452,-8.789722,-0.87178713,0.7602856,0.17052372,2.056447
5.345684,-9.163345,-2.6488917,0.84497416,0.40754503,2.4383442
5.738467,-7.448511,-1.7771046,0.8385826,0.00966878,2.5406096
4.967271,-7.079678,-1.7723145,0.8939763,-0.49473396,2.308382
4.282295,-7.8987746,-2.1219873,0.57120115,-0.28807265,2.0457945
4.382886,-9.354947,-2.7399025,-0.1356018,0.80968237,1.7975878
8.085587,-8.703502,-0.85741705,-0.50844437,1.3220747,1.6047748
7.711963,-8.143066,-0.1101709,-0.48181275,1.0136806,1.1200795
6.552774,-9.498648,-1.8250049,-0.5073791,0.7830508,0.52885777
6.840176,-11.606265,-1.0298585,-0.74226993,0.8299224,-0.1997831
6.3084817,-12.521163,-0.9388477,-0.8876785,0.7660065,-1.0328199
7.185059,-9.862691,0.98195803,-0.40138528,1.4781358,-1.9617305
0.5939649,-11.290123,-1.585503,0.08970164,0.19715533,-1.8940862
2.792593,-10.5764065,-0.51732427,0.52166635,-0.01429967,-1.0205693
4.277505,-10.298584,-0.5412744,0.8811931,-0.25238627,-0.57262564
3.8176613,-8.5119,0.79993653,1.1933156,-0.8713049,-0.27381897
4.2439747,-6.4138627,-1.5998731,1.2487094,-1.3932844,0.47825772
4.2296047,-5.6666164,-1.7818946,1.1027682,-1.8769145,0.67320114
3.2093263,-4.90979,-0.852627,1.1741409,-2.3205974,0.76747704
2.189048,-4.9385304,-0.7664063,1.4159559,-2.5938377,0.79623914
3.1901662,-5.949229,-3.9661524,0.6383128,-0.13520719,0.0015518887
2.8500733,-7.2425394,-0.8909473,-0.2000503,0.15454474,-0.20564206
1.949546,-6.864126,-1.1304493,-0.43760428,0.81607395,0.35575232
1.6813037,-6.7970657,-0.7041358,0.07319003,1.8824037,2.056447
1.101709,-7.0126176,-0.852627,0.04283,2.3324778,2.9171808
0.39757326,-5.2019825,-3.032095,0.13444275,4.6227965,3.5861669
0.31135255,-5.7767873,-2.663262,-0.545196,6.137603,3.7486196
0.9436377,-7.941885,0.028740235,-1.9380292,6.710182,2.7802942
1.5567628,-7.668853,1.465752,-2.7183356,4.8763294,1.8982552
-0.68018556,-10.4566555,3.5206788,-1.884766,0.15401211,1.7246171
-2.1603076,-14.365328,-3.032095,-1.8634607,-1.8817083,1.7997183
-4.119434,-38.181404,-4.622388,-0.53773916,-3.120611,3.332101
3.4823585,-23.681953,-3.539839,0.65535706,-0.17036091,2.0330112
-0.047900394,-7.5155716,-1.8824854,0.97440374,1.4818643,-0.7020553
-3.7697608,-5.7480474,0.16765137,0.7682751,1.0344533,-0.40857494
-0.4167334,-9.101074,-0.8334668,0.03217736,-0.0792808,0.3056849
-0.19639161,-10.466236,-0.6179151,-0.34652415,-0.2609084,0.03936878
-0.244292,-10.106983,-0.8143067,-0.09032806,-0.39726225,-0.03413447
-0.86220706,-10.2315235,-1.0394385,0.29955873,-0.27475685,-0.004307066
-1.331631,-10.624307,-1.2502003,0.75389403,-0.07022605,0.13151415
-1.2693604,-10.140513,-1.4992822,0.61434436,0.026180377,0.13257942
-1.2358302,-9.68067,-1.0346485,0.23404497,-0.14905563,0.03297719
-1.2693604,-9.829161,-0.46463382,0.070526876,-0.25238627,0.02338981
-1.1591895,-9.944121,-0.5987549,0.11846378,-0.22202624,0.028183501
-0.9580079,-9.920172,-0.6514453,0.16480277,-0.22841783,0.0058129462
-0.7568262,-9.83874,-0.6658155,0.116333246,-0.28487685,-0.035199735
-0.7759864,-10.092612,-0.21076173,0.044427898,-0.3434664,-0.0857998
-0.5412744,-10.346485,-0.0047900393,0.034307886,-0.38341382,-0.12627985
-0.50774413,-10.408755,0.47900394,0.1749228,-0.406317,-0.1699557
-1.0538087,-10.164463,0.39757326,0.32139665,-0.46011287,-0.19711994
-1.5423926,-9.992022,0.60354495,0.38105145,-0.3285527,-0.15663989
-1.4849122,-9.872271,0.5460645,0.44976103,-0.14692509,-0.09272402
-0.60354495,-9.80521,0.39278322,0.5770601,0.19342689,0.019128753
0.119750984,-9.867481,0.28740236,0.6079528,0.2861049,-0.0011112725
0.2203418,-9.618399,-0.2778223,0.4907737,0.25787538,-0.04851554
-0.086220704,-9.034014,-0.6322852,0.28677556,0.24669012,-0.05863555
-0.50774413,-8.334668,-0.34009278,0.033775255,0.37984815,-0.03200394
-0.3544629,-8.296348,-0.0047900393,-0.13240601,0.43683982,-0.004307066
-0.100590825,-8.52627,0.05748047,-0.24745457,0.38144606,0.0068782107
-0.24908204,-8.310719,0.09580079,-0.30497885,0.30048597,-0.013894446
-0.5412744,-8.425679,-0.014370117,-0.3454589,0.29036596,-0.020286031
-0.7951465,-9.163345,-0.23471193,-0.4711601,0.36173868,-0.012829182
-1.092129,-10.715318,-0.244292,-0.6149708,0.36919552,-0.014959711
-0.90052736,-11.601475,0.06227051,-0.7390741,0.33777022,-0.017090239
-0.7185059,-11.500884,0.56522465,-0.736411,0.24296169,-0.073549256
-0.96758795,-10.015972,1.6813037,-0.5143033,0.23870064,-0.122018784
-0.732876,-9.2256155,1.2549903,-0.30231568,0.28344172,-0.09858297
-0.53169435,-9.062755,-0.46942386,-0.27621672,0.14602263,-0.052243967
-0.67539555,-9.134604,-1.5423926,-0.39073265,0.12631524,-0.037862897
-1.0585986,-9.642349,-1.9208057,-0.47488853,0.28184384,0.037770882
-1.3028907,-9.74294,-1.6238233,-0.482878,0.49063566,0.058010906
-1.4465919,-9.72857,-0.76161623,-0.48713908,0.7676044,0.09050147
-1.1112891,-9.968072,-0.6322852,-0.51909703,0.8059539,0.09902359
-0.6322852,-10.490186,-0.9627979,-0.56809914,0.7457665,0.036705617
0.3305127,-10.758429,-1.9878663,-0.637874,0.43950298,-0.11775773
0.37362307,-10.289004,-2.323169,-0.72202986,-0.01163651,-0.2509158
-0.52690434,-9.929751,-1.8441651,-0.750792,-0.34293377,-0.294059
-1.0490186,-9.632769,-1.465752,-0.6756909,-0.45851496,-0.24985053
-1.2981006,-9.402847,-2.1603076,-0.4232232,-0.4638413,-0.10497455
-0.8669971,-9.388477,-2.5291407,-0.38434106,-0.21084096,-0.04159132
-0.2203418,-9.891431,-1.5567628,-0.3571768,-0.11869559,0.027650869
0.847837,-10.236314,-1.2645704,-0.26503143,-0.2577126,-0.006970227
1.1975098,-10.169253,-1.101709,-0.2629009,-0.4260244,-0.19605467
0.4981641,-10.130933,-1.1304493,-0.15424393,-0.4776897,-0.23440419
-0.1341211,-9.398057,-1.2645704,-0.025879556,-0.442536,-0.19552204
-0.2921924,-9.187295,-1.2070899,0.026318401,-0.37329382,-0.13267145
0.0,-9.3453665,-1.1208692,0.14243223,-0.26144105,0.009541372
0.6179151,-9.441168,-1.5423926,0.15841119,-0.32109585,0.0036824176
0.8334668,-9.68067,-2.208208,0.07265741,-0.41164333,-0.012829182
0.613125,-9.594449,-2.4572902,-0.053043798,-0.38767487,-0.057570286
0.22992188,-9.211246,-1.7004639,-0.23147559,-0.35891274,-0.060766082
0.21555176,-9.656719,-2.2800586,-0.34812206,-0.52243084,-0.029873412
-0.22513184,-9.7621,-3.0704153,-0.46476853,-0.56078035,0.03297719
-0.6322852,-9.848321,-3.2572267,-0.5558486,-0.2380052,0.1075457
-0.0047900393,-9.6615095,-1.2597803,-0.68581086,0.22112377,0.18051632
0.852627,-9.671089,-0.3065625,-0.6831477,-0.0313439,0.1672005
0.9244776,-9.70941,-0.4981641,-0.6485266,-0.41856754,0.13524257
0.7041358,-9.77647,-1.1160791,-0.6096445,-0.571433,0.1240573
0.11496094,-9.79084,-1.465752,-0.6053834,-0.49153817,0.15175417
-0.6945557,-9.766891,-0.3305127,-0.45092008,0.037898287,0.32645753
-0.16286133,-9.489068,0.6179151,-0.2959241,0.07518254,0.40581974
0.51732427,-9.733359,0.64186525,-0.14998287,-0.035072327,0.46494192
1.2454102,-9.996812,0.047900394,-0.07434909,-0.06223657,0.48837775
1.2789404,-11.352393,0.30177248,-3.1320995E-4,0.15347949,0.45748508
1.2789404,-12.506792,1.8968556,0.26227447,0.5199304,0.4319187
1.5950831,-12.104429,3.1470559,0.67719495,0.8613477,0.37759024
1.8345851,-10.98356,5.087022,1.2588295,1.2613546,0.4015587
0.6514453,-9.287886,9.666299,2.4220982,1.490919,0.44363663
-0.4023633,-10.427916,11.711646,3.4394257,1.0861186,0.44257137
-2.907554,-11.917618,6.686895,4.075921,0.24189644,0.6178074
-2.2321582,-13.38816,-1.9974464,3.8580747,-0.3322811,0.83032763
0.30177248,-16.00831,-2.8692336,3.269516,1.2645503,0.396765
1.2310401,-19.902613,1.4226416,3.4783077,2.6765583,0.16453734
2.912344,-22.958658,7.664063,4.1190643,2.629154,-0.46343607
1.5184424,-24.932154,7.822134,5.3148236,2.7468657,-1.1382811
-5.3792143,-22.197042,2.9985645,5.5145607,3.362056,-0.46982765
-7.697593,-16.310083,3.9613624,5.8746204,4.519466,0.81275076
-6.4282327,-9.206455,2.572251,5.460765,4.6867127,1.2031702
-4.3014555,-1.1256592,4.5792775,4.07166,4.213735,1.2447155
-0.43110353,-0.38320315,4.766089,2.3177023,3.5569994,1.411962
-0.5029541,-2.6584718,6.11688,0.5030242,0.5897053,0.7637486
-6.0689797,0.8813672,1.7483643,-0.85891634,-0.84999967,0.74297595
-4.430786,-3.2476466,-1.7292042,-1.0394787,1.1713398,1.0023679
6.6342044,-1.9016455,-3.9757326,-0.68634355,0.49809253,-0.29352638
3.7314405,0.79993653,-9.613608,-1.5657192,-2.081978,-1.701806
2.3566992,0.35925296,-6.844966,-2.5952976,-3.4401903,-2.656283
0.28261232,-1.3939015,-8.401729,-3.2749362,-4.2524543,-3.1873174
-3.4009278,-2.567461,-6.476133,-4.590538,-5.173375,-2.9220665
-3.9326222,-4.2296047,3.6308498,-3.5279365,-3.8945255,-2.0373642
-5.336104,-20.970793,-6.0689797,-4.1537795,-5.877515,-0.39472649
3.6021094,-33.563805,0.7951465,-5.574842,-2.4809196,1.5808065
-1.1400293,-12.12838,2.8836036,-3.498109,-2.7403114,0.44843033
-1.3986914,-4.6750784,-0.0047900393,-2.241097,-2.8793285,1.4433873
-0.7664063,-7.204219,-3.4536183,-3.298372,1.7593657,1.9296806
3.9278321,-15.558047,-1.8537452,-5.3612566,2.0496502,1.9584427
12.842095,-48.154266,-3.2859669,-7.8348007,-2.2444308,-0.2722211
-0.5029541,-33.626076,19.840343,-5.5205135,0.59130317,-1.6634564
-6.6437845,-18.38417,16.286133,-3.5066311,1.8866647,-1.1830221
-0.25866213,-6.4186525,17.804577,-2.2506845,0.5646716,-0.62535626
1.6477735,-4.5313773,16.990269,0.8843889,-2.0297801,-0.8772913
-0.14370118,-4.478687,13.215718,3.146478,-2.0281823,-0.62695414
-2.687212,-2.6201515,-1.9734962,4.3070836,-1.5509436,-0.23600209
3.5015187,0.4406836,-4.1242237,3.5081353,-1.3682507,-0.13693249
3.027305,-1.336421,3.3434474,5.7324076,0.94443834,-0.37235594
-1.0681788,-8.703502,4.799619,6.853598,0.707417,0.91874456
0.9532178,-28.960577,1.9064356,5.741462,3.2065272,0.99597627
3.5637891,-34.574505,10.571617,5.2136235,3.8637955,0.17412472
-8.746612,-53.63407,3.9805226,6.510583,1.4749401,-0.57315826
-2.0453467,-28.697124,-2.0980372,9.088524,4.0086718,0.43564716
4.9529004,-12.382252,-8.636441,9.059761,5.4867263,1.758173
12.22418,-0.28740236,-8.377779,5.679677,6.427355,0.8697424
-2.9794044,14.499449,-6.4330225,1.405836,2.84487,-1.1254979
-9.316627,-2.3423293,-10.092612,-1.0117818,4.783652,-0.25943792
-0.71371585,-1.2645704,-14.197677,-1.5374898,3.382296,0.16560261
3.9805226,2.2321582,-15.074254,-1.9939556,-2.438309,-0.5289498
5.0582814,0.728086,-14.9161825,-3.648844,-6.753695,-2.0224507
-1.9399658,-0.45026368,4.138594,-3.76336,-7.024805,-1.9675895
-5.6426663,-5.494175,29.947325,0.41354203,-6.4852486,-1.995819
-9.867481,-7.046148,-15.376026,-1.5193802,0.33830285,-0.7819501
2.1459377,-3.894302,-15.519727,-5.899748,-2.613545,-0.5864741
-0.7568262,-9.3453665,-16.104113,-7.1258674,-5.0210423,-0.4708929
-12.957056,-19.797232,-6.8928666,-6.752492,-5.347546,0.6977022
-6.0306597,-23.164629,-2.8357031,-5.7074676,-5.618123,3.1376905
-0.15328126,-27.054142,4.679868,-2.299154,-0.93468815,3.2026715
26.512867,-57.40383,-5.6714063,-5.6542044,4.480051,1.7097034
16.856148,-35.019978,14.67189,-6.7514267,-0.23054835,-3.4435134
-10.106983,-15.668219,17.680035,-5.429966,-0.121358745,-2.6802514
-9.877061,-9.608819,8.339458,-3.3633533,-0.34932536,-0.5550488
-4.88584,-6.7395854,10.083033,-1.5039339,0.78677917,-0.20670731
2.189048,-5.944439,15.050303,0.3421693,-1.260659,-0.5539835
4.9624805,-6.0833497,26.84338,3.6743164,-0.8414775,-1.0296241
-2.43813,-4.191284,-1.3220508,4.6447725,-1.2271032,-0.6258889
2.6967921,1.1352394,-8.214917,2.7693744,-1.4412214,-0.22747998
-3.0799952,-1.9734962,3.3769777,6.3230968,0.6925033,-0.0075028595
-3.0416749,-8.698711,1.6142433,6.9979415,2.0240839,1.2681513
-1.6669337,-17.263302,4.6990285,7.278639,3.9010797,1.568556
0.8430469,-46.43464,15.241905,6.964918,0.31486702,-0.727089
-27.130783,-59.247997,4.2152348,7.0022025,-0.24812521,1.5882633
-0.7568262,-40.624325,2.6776319,7.8538814,1.3897189,1.5339348
3.8416114,-21.124073,-3.6452198,7.5454874,3.225702,0.72966015
16.00831,3.8080812,-6.1216702,3.947024,4.954094,0.14802575
0.613125,11.764337,-10.015972,1.5507119,5.912832,-1.0088514
-2.9027638,6.6581545,-12.478052,0.1040827,6.3772874,-1.135618
-1.6238233,8.023315,-21.411476,-1.0309565,2.3852084,-1.1313568
10.250684,0.62749517,-28.716286,-3.528469,-5.159527,-1.9835684
-0.244292,0.8813672,-5.6809864,-6.3578115,-8.316438,-2.0900948
-2.3710694,0.0047900393,10.806329,-4.917574,-8.819776,-0.9033903
-14.073135,-16.03226,33.123123,3.8138661,1.1340555,0.54164094
-2.2225783,-13.718673,-19.797232,0.4625442,3.1074576,1.4114294
4.703819,-5.2882032,-26.575138,-5.4033346,-5.5030746,0.50009567
3.0416749,-5.1924024,-19.179317,-7.875281,-5.0295644,0.12299204
-6.365962,-9.465117,-6.06419,-7.0965724,-1.590891,-0.33240852
-13.574971,-14.772481,-9.833951,-6.072853,-4.045793,2.7179763
10.748848,-51.10972,-2.189048,-2.313535,5.2555637,3.9036155
22.331163,-73.45046,-1.4705421,-6.066994,6.5317507,-0.16249885
4.6942387,-28.692335,29.626392,-7.2568946,-0.7653111,-3.3305953
-18.839224,-14.058765,19.174528,-5.125833,-0.46916762,-2.48371
-8.5598,-8.186177,12.118799,-3.2168794,-0.054247085,-0.0676903
5.4750147,-9.81958,-0.028740235,-1.723911,-1.693689,0.25401956
13.263618,-2.308799,20.961212,0.3320493,0.4996904,-0.18433677
11.635005,-2.8692336,22.08687,2.8210397,-0.26729998,-1.3060602
-4.7469287,2.1650977,-1.2070899,2.1621735,-1.5008762,-1.1558579
-7.5395217,2.1650977,8.296348,4.5760627,0.7473644,0.13950363
-4.608018,-2.1363575,3.1949563,5.789399,1.7721488,0.968812
-3.1997461,-7.031778,3.7649708,6.1968627,2.6952004,1.532337
7.879615,-30.210777,6.8593364,6.480756,3.7961512,1.6431245
5.0343313,-44.834766,9.733359,6.3726315,0.11193417,-0.122018784
-16.784298,-53.42331,7.060518,7.4778433,-0.19859041,0.2561501
-9.2256155,-48.183006,2.663262,7.6775804,0.8038234,1.8013161
-0.27303225,-23.600523,-3.0081446,7.180102,2.989746,0.7664118
7.975415,-1.1831397,-6.356382,5.394186,5.138385,-0.015492343
7.1132083,8.425679,-9.862691,3.6759143,6.1280155,-0.19552204
3.8799317,9.493857,-12.636124,2.517972,6.8992667,-0.030406045
9.057964,7.5059915,-14.154566,1.3323327,4.820403,-0.30311376
7.8365045,3.7170706,-26.441017,-5.3836274,-4.6790924,-3.4126208
3.9278321,1.336421,-12.20023,-7.3959117,-6.5614147,-3.7721474
-2.4572902,1.3603711,3.1901662,-7.2845917,-8.356385,-2.6994262
-18.647623,-11.749967,39.29748,0.5206011,-6.3957663,0.06440249
-13.570181,-26.781109,30.172457,4.2751255,7.3397536,1.1573638
2.572251,-16.741188,-28.261232,0.61008334,-0.16130616,1.3725473
6.9024467,-9.182506,-27.643316,-4.4866743,-5.1920176,0.077718295
-4.287085,-4.622388,-10.93087,-5.567918,-1.9988873,-0.6493247
-2.6009912,-6.5000834,-16.037052,-6.2491546,-5.9957595,2.1443312
2.7782228,-17.972227,-21.94317,-6.853692,-2.3205974,2.954465
5.8198977,-63.851223,-18.724264,-5.7261095,7.4414864,1.4385936
11.309282,-38.88554,33.578175,-6.4318476,-0.5139087,-3.307692
-17.359102,-12.506792,12.334352,-5.4262376,-1.4273729,-3.0568223
-16.238234,-9.278306,8.320298,-4.807319,-0.3184327,-0.9800893
-10.609937,-4.311035,6.423443,-2.8296556,-0.36051065,-0.05543976
0.7711963,-5.4223247,7.438931,-1.018706,-0.8489344,0.5336515
8.49274,-6.2270513,16.525635,2.6159763,-0.7834206,-1.202197
-0.57001466,-1.2885206,-7.472461,1.7062405,-3.1919837,-1.4669151
-3.9422023,4.071533,4.631968,2.5653763,-1.1227072,-1.4711763
-3.8751419,-0.100590825,3.0799952,6.0365405,3.1729715,1.0913174
-0.19160157,-9.766891,5.010381,6.32576,4.433712,2.046327
2.2177882,-21.085752,11.658956,6.9654512,4.6504936,2.3025231
8.133487,-37.592228,12.770245,6.6229687,2.1838734,1.2148881
-3.7362306,-52.101257,8.861572,6.746539,-0.5847488,-0.05863555
-4.8283596,-44.643166,0.086220704,7.537498,0.7420381,1.7038444
0.0047900393,-28.366613,-3.3673975,7.804879,2.3122377,0.5389778
7.8891945,-11.668535,-5.4031644,6.714581,4.0480866,0.15708049
10.8925495,9.699829,-8.51669,4.3070836,5.2193446,0.63005793
8.641231,4.397256,-18.633253,0.49450213,5.4584966,0.49796513
6.2989016,11.064991,-24.548952,-1.8112627,0.3505534,-0.67009735
9.987232,0.6610254,-28.275602,-5.0470037,-5.9350395,-2.2024803
3.8895118,-0.7232959,-13.45522,-6.154346,-6.853297,-2.8842494
-1.9591261,1.1064991,-0.5029541,-5.9045415,-7.050904,-2.517266
-4.598438,-2.4141798,25.990753,-1.9018102,-5.506803,-0.73614377
-4.3301954,-20.209175,56.297333,3.5491478,1.7066351,0.386645
1.9734962,-11.524835,-25.46864,-0.90205956,-1.18396,0.7600202
-4.416416,-10.863809,-17.790205,-4.409443,-3.8263485,-0.1156272
-5.1780324,-9.963282,-3.180586,-4.4339437,-1.685167,0.5592178
-6.4186525,-9.3453665,-12.842095,-4.8323526,-3.352306,2.020228
0.29698244,-14.743741,-16.621437,-6.4840455,-1.9530809,2.8836248
10.92608,-64.35418,2.1315675,-6.1378345,6.190866,1.4433873
17.14834,-44.226433,16.789087,-4.7284894,0.6962317,-1.861063
-8.756192,-18.925446,15.490987,-6.0105352,0.50341886,-3.3023658
-17.775835,-14.058765,14.906602,-5.4416842,0.9769289,-0.87782395
-2.208208,-3.7649708,-3.5973196,-3.2967741,-3.2186153,-0.6626405
8.195757,0.21076173,18.460812,-0.714573,0.27918068,-0.09805033
12.880416,-4.157754,24.52979,1.651912,0.5327136,-0.7931354
-0.2921924,-4.253555,11.994258,2.715046,-0.6992647,-1.2783633
-8.799302,0.39278322,-1.3939015,2.9760356,-1.6761122,-0.23440419
-5.130132,2.1507277,3.166216,4.4508944,1.0078217,1.1110249
-2.0980372,-2.682422,3.9948928,5.1529036,1.9063722,1.3469809
-0.12454102,-6.8593364,3.8464015,5.569422,2.5295517,1.802914
11.922408,-32.79261,14.753321,6.763583,1.8030416,1.8082404
8.837623,-49.222443,9.953702,6.3422713,-1.4550698,-0.4559792
-12.319981,-64.397285,4.6750784,5.5065713,-1.14348,-0.5614404
-3.056045,-30.981974,-4.248765,7.4645276,3.8265111,0.32645753
5.3025737,-14.858702,-7.1706886,6.967049,7.0952754,0.47186613
9.982442,8.502319,-7.443721,4.005614,6.823633,0.21567003
2.5866213,11.845767,-6.231841,2.7049258,6.2787504,-0.32122326
0.3065625,7.664063,-13.311519,1.1251388,5.701377,-0.36916015
8.885523,9.263936,-22.834118,-0.9148427,1.3913168,-1.3534645
6.7779055,0.8334668,-22.163511,-5.9013457,-6.290305,-3.6927853
1.9064356,1.6621436,-7.927515,-6.877128,-7.6889973,-3.4312627
-0.45505372,-0.3161426,4.176914,-5.895487,-8.359049,-2.6919694
-16.511265,-22.791006,21.540806,0.62073594,-3.1696131,0.5933063
-6.1312504,-28.07921,29.813204,3.7361019,6.574894,1.3011745
-2.2465284,-13.493541,-8.56938,3.2977455,4.7580853,1.3544377
5.0534916,-11.520044,-28.883936,-2.4434974,-6.4405074,0.8979719
-1.1256592,-5.225933,-7.1371584,-4.436607,-2.3813174,-0.61363834
-2.179468,-6.1791506,-17.474064,-5.0661783,-4.472964,1.5813391
4.277505,-12.626543,-22.925127,-6.963414,-3.179733,2.670572
3.0991554,-23.638844,-15.7736,-8.069691,1.9053069,2.0553818
19.984043,-82.90121,14.499449,-6.3391695,8.23138,1.0550984
-11.04104,-19.289488,16.836988,-5.398541,-2.0484223,-3.4285996
-17.890797,-12.4541025,8.875943,-4.8462014,-0.4041865,-2.2509499
-13.608501,-3.4296682,6.701265,-3.8800063,-0.2129715,-0.6189647
8.952583,0.31135255,21.435425,-0.026944822,0.003277193,0.2731943
11.429033,-5.489385,23.648424,2.315039,1.1244681,-0.8021901
-1.8250049,-2.9219239,-1.0298585,2.5632455,-1.3677181,-1.220839
-9.7621,3.7506008,8.54064,4.399229,0.1950248,0.48198617
-4.3254056,-0.4981641,2.2896388,5.7467885,1.811031,1.5041074
-0.19160157,-9.359736,1.5950831,6.3646417,3.6960163,2.394136
7.7598634,-26.081764,11.510465,7.8842416,5.760499,2.8591237
4.478687,-46.01312,13.34505,6.99155,0.62059796,0.17252682
-23.892715,-59.4875,5.829478,6.4349494,-3.0071602,2.141668
-6.0833497,-47.54593,-2.543511,7.512997,0.8799898,1.9350069
-2.2944288,-35.690582,-5.6522465,7.6962223,2.546596,0.9821278
8.933423,-11.438614,-8.382568,6.903133,4.265933,0.35681757
-1.9064356,13.311519,-7.33355,2.3885422,5.1905828,-0.6029857
-1.710044,6.0689797,-13.206139,1.207164,6.399125,0.058010906
14.485079,9.201666,-23.3227,-0.9558554,3.4238412,-0.20723996
14.537769,7.4772515,-37.44853,-4.5010557,-4.403189,-2.6275208
-0.244292,0.5939649,-1.1352394,-7.153564,-8.393137,-2.3452258
-5.494175,-4.7804594,21.090544,-4.0376654,-9.048275,-1.4647846
-15.979571,-20.64028,36.916832,0.7831888,-4.7185073,-0.17208622
-10.083033,-33.717087,31.451397,5.332401,4.6749945,0.7685423
-2.1124072,-20.61633,-18.015337,1.6039752,2.5561833,1.0082268
0.47900394,-5.757627,-20.88936,-4.701858,-3.157895,-0.18646729
0.8334668,-1.9878663,-15.90293,-5.091745,-3.491323,0.14482996
-0.6945557,-10.648257,-18.724264,-7.918424,-1.852946,1.7666951
-2.682422,-21.612658,-15.361656,-8.318963,2.552455,2.450595
31.5472,-94.9769,26.450598,-5.169509,5.095774,-0.0048396983
11.500884,-47.44534,27.145153,-6.2677965,-0.49153817,-3.6693494
-17.929117,-13.733043,15.208375,-5.8001456,-0.9181766,-2.4815795
-4.9002104,-1.695674,3.5829494,-3.3063614,-3.977616,-1.0525273
1.5663428,-0.48379397,13.043277,-0.982487,-1.3655876,0.10434991
9.2256155,-5.743257,29.554543,1.1586946,1.9782776,0.008476107
-7.199429,-0.93405765,-3.0416749,2.9541976,-2.5277913,-0.3121685
-7.165899,4.6607084,4.277505,3.434632,-1.8982198,0.43085346
-2.4908204,0.45026368,4.9433208,5.2162867,1.5313991,1.2596292
3.0943654,-5.110972,0.028740235,5.389925,3.4547338,1.7496508
5.360054,-9.388477,4.718189,5.6178913,5.2619553,2.143266
12.2433405,-29.971275,15.8694,6.541476,1.0019627,1.5557728
4.488267,-38.90949,5.8007374,7.005931,-0.44360125,0.3259249
-12.957056,-57.50442,5.029541,7.0709124,1.0887817,0.9341909
-4.8091993,-39.742954,-2.3327491,8.107947,3.3684475,1.0705447
1.096919,-19.48109,-6.3851223,7.262127,4.9759316,0.74776965
8.799302,8.353828,-8.899893,4.345433,5.3658185,0.16560261
3.7266505,12.885205,-6.2701616,2.572833,5.094709,-0.6131057
1.3268409,6.8928666,-11.692486,1.007427,5.336524,-0.2658295
14.54256,6.4905033,-31.475348,-2.4003541,-2.1006203,-1.609128
7.443721,3.6883302,-25.162077,-6.3215923,-7.0104237,-3.1734688
0.57001466,2.5387208,-9.307046,-7.2904506,-7.81097,-2.8251274
1.4322218,-0.81909674,4.0906935,-6.0914955,-7.9180293,-2.1066065
-14.355747,-23.14068,31.374758,0.8210057,-2.365871,0.15814576
-1.3651612,-36.49052,37.103645,4.5579534,5.039848,1.3523072
-4.996011,-27.375074,-32.529156,1.549114,0.0059403544,0.9922478
2.955454,-6.447393,-30.828693,-3.7441852,-2.4074163,0.17252682
4.1146436,3.290757,-16.760347,-4.4073124,-1.8609356,-0.26955792
7.4197707,6.935977,-18.599722,-6.092561,-5.4876285,-1.3236371
-11.893667,-9.354947,-12.248131,-8.995938,-0.49047288,1.1898544
-4.387676,-35.072666,-4.4451566,-7.653173,3.7359638,4.3355803
21.148024,-60.809547,27.049353,-5.6068,1.3321947,-3.1026287
-18.21173,-12.118799,14.935343,-5.0209045,0.16306686,-3.1095529
-13.828843,-4.009263,12.621754,-5.150867,0.50022304,-2.191295
-1.7387843,-3.8368216,3.6691701,-2.9228663,-5.0759034,-1.2261654
4.2343946,-0.37362307,11.03625,-0.19738713,-0.69021,-0.25464422
1.0011182,-4.248765,7.563472,3.0569956,0.05654042,-1.2884834
-10.514136,-0.12933107,0.0,3.0335598,-1.8699903,-0.82828915
-8.004155,1.6190332,2.5770411,5.554508,1.0893143,1.1951807
-2.687212,-4.981641,1.0059083,6.1281533,2.2477894,2.2748263
2.572251,-14.65273,6.969507,7.2962155,3.9990842,3.1169178
11.467354,-36.91204,14.341377,7.67545,4.301087,2.7882836
6.447393,-38.6173,18.379381,6.967049,-0.40152332,0.68864745
-6.0593996,-52.52757,3.2620168,6.4956694,-1.8273797,1.0598922
-0.5508545,-39.690266,-3.3338673,7.4437547,2.5380738,-0.21522944
9.067544,-3.439248,-9.010064,6.6842213,6.61058,0.5304557
8.50711,16.779507,-6.0354495,2.9978735,5.5921874,-0.61150783
-4.157754,7.4101906,-6.346802,0.63671494,4.3724594,-0.57369095
-0.0047900393,2.931504,-14.087505,-0.75824887,5.225736,-0.088462956
8.210127,8.636441,-21.377945,-2.2251182,1.5058328,-1.2432096
4.8331494,3.415298,-22.699997,-6.861149,-7.832808,-3.4839935
-1.3651612,-3.774551,0.06227051,-6.31094,-9.287959,-2.5598764
-7.6257424,-9.445957,19.998413,-3.0911782,-7.8503847,-1.3199086
-11.711646,-24.735764,35.489403,1.0505702,-2.5256608,0.05694564
-1.710044,-25.430319,21.310884,5.318552,4.8704705,1.1733428
7.2425394,-7.3814507,-26.84338,-4.000381,-3.6495147,-0.10390929
0.46942386,-3.439248,-15.82629,-5.53596,-4.5587177,-0.9752956
-5.0774417,-5.407954,-11.261382,-5.8933563,-6.452225,0.6263295
-5.934859,-7.563472,-14.758111,-6.451555,-6.1859093,1.7107687
-0.42152345,-31.058615,-9.685459,-8.16663,5.588459,3.8551462
33.420105,-90.934105,21.339624,-4.7418056,8.205281,1.5211517
13.780943,-44.26475,28.385773,-6.192163,-1.693689,-2.777723
-18.240469,-15.088624,12.20502,-4.880822,-0.45159075,-2.7281883
-1.456172,-4.3637257,6.255791,-2.97826,-4.264172,-0.6839458
4.277505,-2.6488917,5.743257,-0.6032529,-2.164536,-0.38567173
12.12838,-3.0943654,24.002886,2.4817529,2.311705,-0.6551837
4.751719,-3.4009278,9.64714,2.5968015,0.8144761,-0.9800893
-12.166699,2.5770411,9.987232,4.7896485,0.06825832,1.0044984
-4.488267,-1.2933106,1.7627344,5.820824,1.7364625,2.0340765
-0.19639161,-6.6294146,3.391348,6.2693005,3.5841637,2.6189067
13.900694,-29.34857,16.717237,6.840815,3.9420924,3.012522
13.052857,-38.92865,12.535533,6.8679795,-1.0071261,0.9246035
-6.9311867,-51.655785,5.0918117,7.353207,0.46506932,-0.053309232
-15.481407,-59.080345,0.4263135,7.6030116,1.5543023,2.1757567
-1.4801221,-29.367731,-3.5973196,7.9263196,4.32399,1.6356676
9.445957,-2.9698243,-7.999366,5.54066,5.1053615,1.2899892
11.333233,12.19544,-8.784932,3.2087958,5.772217,0.36800286
3.1853762,11.524835,-11.898458,2.425294,6.0928617,-0.05810292
17.579445,5.4031644,-28.438463,-0.8679711,0.44909036,-1.9649264
12.870835,3.295547,-32.246544,-6.112268,-6.057012,-4.425687
0.6849756,2.2129982,-10.729688,-8.0185585,-8.7270975,-3.8605645
-1.7004639,-1.0633887,9.043594,-7.043309,-10.493838,-2.4469585
-8.799302,-6.5096636,32.265705,-2.9303231,-10.121529,-1.0264283
-3.67875,-26.987082,39.92019,2.4865465,7.996489,1.1083616
1.5950831,-21.215084,9.139395,4.513212,4.7469,1.1041006
12.152329,-12.425362,-34.1434,-1.5587951,-3.0247371,0.13577521
3.6308498,3.4488282,-14.767691,-5.929043,-3.9190266,-1.180359
1.4178516,1.0729688,-14.178516,-7.111486,-6.7164106,-0.5039161
-4.3541455,-7.8365045,-19.873873,-8.8079195,-4.7355514,1.139787
-9.259146,-21.751568,-14.274317,-9.587693,0.73937494,3.103602
16.525635,-90.60359,7.6209526,-5.04221,7.6715837,3.9632704
-7.1563187,-22.359903,26.235044,-6.0595374,-2.4553533,-3.3353891
-14.561719,-7.6017923,9.029224,-4.7716327,-0.1320114,-2.8405738
-9.618399,-4.655918,4.2248144,-4.684281,-1.0614545,-1.5175152
16.554377,-2.5099807,31.978302,1.0921155,1.0088869,-0.5614404
3.6500099,-5.815108,15.85982,3.026103,2.2413979,-1.5180478
-11.869718,-1.6621436,-6.212681,2.7954733,-0.96398294,-1.1872833
-14.111456,4.7708793,8.981323,3.961938,-0.6028583,0.37972078
-8.171807,2.3375392,4.512217,5.9609065,1.5447149,1.5935897
1.954336,-10.4566555,3.5494192,6.6362844,5.533598,3.2506084
11.146421,-29.985645,22.08208,7.3409567,4.7128115,3.3597982
11.156001,-39.03882,18.27879,7.1795692,-0.6364141,1.4535073
-4.0523734,-52.35992,2.4956105,7.376643,0.04215935,0.43724504
-4.4547367,-50.05112,0.45984375,8.12073,1.3407167,2.0543165
-3.151846,-29.535381,-4.5792775,8.080251,3.2928138,0.8100876
9.144185,-1.8441651,-11.141631,6.1324143,4.6409063,0.20555003
7.189849,18.350641,-7.9849954,3.155,4.9066896,-0.89806396
-0.2203418,3.1326857,-14.087505,0.3405714,5.650244,-0.4458592
14.389278,4.2439747,-28.826456,-1.818187,1.7055699,-0.8309523
12.789405,3.8320315,-30.043127,-5.7767096,-5.7827067,-2.4544153
1.4609619,1.9687061,-12.880416,-6.9618163,-7.120679,-2.3420298
0.28261232,-2.2369483,10.595567,-4.9505973,-7.8407974,-1.2682433
-12.583433,-10.102193,24.855515,-2.0727854,-5.8045444,-0.16249885
-6.1456203,-35.963615,59.6312,2.5802898,3.0802934,1.4737474
1.4370118,-40.001617,0.7807764,4.731591,1.9638965,0.64603686
4.5649076,-6.11688,-23.025719,-4.106375,-2.1325781,-0.4724908
2.2656887,6.0498195,-18.800903,-5.288286,-5.0471416,-0.95452297
2.663262,3.3865578,-18.460812,-7.253699,-6.120928,-0.9108471
-7.5155716,-0.8430469,-7.4772515,-8.280613,-3.1557646,0.048956156
-14.058765,-18.149458,-11.2374325,-8.696599,1.3066283,3.384832
39.01966,-93.477615,15.845449,-5.3783007,2.978028,0.18957105
-6.567144,-28.869566,26.82422,-6.1309104,0.03843092,-3.6475115
-14.398858,-7.1227884,16.784298,-4.9154434,0.3143344,-2.6988935
-2.5004005,-5.455855,-3.1901662,-3.3356562,-5.170712,-1.2836897
11.745176,0.9148975,33.606915,1.8756175,3.3673823,-0.4607729
7.199429,-4.2343946,18.39854,2.5515277,2.345261,-0.72123003
-8.133487,-1.1783496,-4.296665,2.33954,-1.8721209,-0.7846133
-9.623189,4.5074267,8.104747,4.790181,0.62219584,1.3608294
-0.79035646,-3.046465,1.6429834,5.7047105,2.6350129,1.9099731
2.1650977,-9.594449,4.517007,5.7121673,4.6361127,2.1848114
8.717872,-20.204386,18.159039,7.083163,4.312272,2.6087866
15.385606,-35.134937,14.446758,7.180102,0.42458928,1.3645577
-13.4743805,-51.30611,5.0343313,7.185961,0.98278785,0.4249945
-10.289004,-52.40303,2.811753,7.5790434,1.0584217,2.7451406
-4.502637,-39.474712,-3.8272414,8.090903,2.5865433,1.51476
1.1975098,-19.60563,-7.6113725,7.5550747,4.651559,0.6561569
2.6536818,14.437179,-7.4006104,2.8354206,4.6963,-0.45065287
-1.1208692,10.265054,-11.6876955,1.3653558,5.5208144,0.24017112
11.965518,9.64714,-22.455704,-0.08340384,4.230779,0.08357725
16.928,6.7491655,-39.848335,-3.3036983,-3.3059669,-2.130575
0.4742139,1.7292042,-9.163345,-7.9461207,-7.882343,-2.5833123
-0.09101075,-3.3865578,12.003839,-5.648878,-9.211793,-1.4834268
-13.35942,-12.20981,36.495308,-1.0064554,-7.890332,-0.6669016
-17.972227,-28.390562,38.78016,2.2836137,1.9244816,0.89371085
9.704619,-10.380015,-27.274483,-0.2362693,0.2877028,0.27852064
7.510782,-7.486831,-28.289972,-5.7900257,-5.4945526,-1.289016
-1.8537452,-6.11688,-12.248131,-6.269927,-4.420766,-1.6991428
-6.983877,-8.890313,-11.400293,-6.145824,-5.323045,1.4801389
-6.3084817,-10.001602,-12.291241,-6.399357,-5.08336,2.0053144
0.0047900393,-37.55391,-14.758111,-8.828159,4.7394433,2.4937382
33.14707,-90.04316,23.26522,-6.750894,6.873168,-0.48793712
11.02667,-37.050953,33.798515,-5.8858995,-3.2788026,-3.0003633
-24.113058,-8.464,6.1216702,-5.514122,1.6224792,-2.1209877
-24.41962,-7.553892,6.835386,-5.3223743,1.7513762,-1.7156544
13.871954,-1.5807129,30.220358,1.8921292,1.0483017,0.13630784
10.95482,-4.502637,20.989952,2.9046628,0.85708666,-1.0274936
-0.1820215,-3.2811768,-8.195757,2.0481904,-2.0276496,-1.6639891
-7.8508744,4.3397756,10.600357,4.840781,0.8821204,-0.19765258
-2.6057813,-2.3471193,-0.44547364,6.089271,3.4115908,1.4694864
-1.9016455,-8.49753,2.802173,6.2293534,5.54212,2.0505881
2.1267774,-25.147707,16.362774,7.703679,5.452105,3.1275704
3.0752053,-44.997627,15.90293,7.9726586,-0.09845556,2.1065145
-14.537769,-59.89465,11.064991,8.170798,-1.3773055,2.0931985
-4.8666797,-57.839725,2.9027638,8.334316,-0.60392356,2.3813527
4.4355764,-20.6307,-5.623506,7.890633,4.188169,0.58478415
14.044395,13.747413,-12.971426,5.166752,6.743738,0.8122181
10.025552,20.65465,-14.8108015,3.763266,7.420714,0.101686746
8.674761,4.2104445,-18.757793,-0.011498487,5.1346564,-0.5523856
11.165582,2.193838,-31.302906,-2.3087413,0.16413213,-2.1082044
7.8652444,-1.6477735,-25.971594,-5.629171,-5.926517,-3.534061
-2.2465284,0.14849122,-6.4090724,-7.1242695,-8.458118,-2.748961
-1.1591895,0.009580079,7.189849,-5.899215,-9.47225,-1.882901
-11.02188,-2.299219,21.526436,-2.3486888,-8.013903,-0.90285766
-0.67539555,-27.279274,34.909805,3.38563,4.992976,1.1254059
5.4989653,-24.050787,-14.992823,1.6737499,1.4584285,0.95922464
5.752837,-24.026836,-30.694572,-3.6472461,-5.81786,0.453224
-1.590293,-2.5866213,-5.949229,-4.12555,-2.5453682,-0.47568658
-2.4045997,-2.193838,-15.495777,-5.6259747,-5.01039,0.96295303
-1.456172,-4.5074267,-18.542242,-7.145042,-5.0444784,1.6340697
-4.8187795,-28.347452,-19.342178,-10.187437,3.5404878,3.0199788
30.785582,-75.00243,30.162878,-5.470446,4.119992,-1.7534713
-12.818145,-19.797232,29.161758,-6.007872,-2.6002293,-3.8371286
-23.499933,-6.696475,6.734795,-4.701858,0.9337857,-2.404348
-8.837623,-3.6979103,0.7759864,-3.6136904,-2.7642798,-0.4676971
11.888878,-0.852627,34.521812,1.9624366,1.8461847,-0.061298713
4.0427933,-5.130132,14.738951,2.8498018,1.089847,-0.5220256
-3.7170706,1.9351759,-3.1087356,1.4873286,-3.777879,-0.5140361
-7.6161623,4.478687,10.97877,3.8889673,-0.5932709,0.29023856
2.0022364,-3.8559816,-0.1101709,4.910556,4.049152,1.8284805
3.9134622,-9.74294,7.668853,5.466624,6.065697,2.2034535
9.690249,-20.83188,15.165264,6.4621134,4.9285274,2.4655085
12.12838,-32.256123,15.998732,6.611783,0.9614826,2.06923
-13.915064,-54.381317,4.1242237,7.6195235,2.1721556,2.005847
-8.090376,-53.65802,2.7063723,8.194767,1.667753,3.5606005
-2.189048,-38.784946,-3.9709425,8.435516,2.3271515,1.3379261
0.9053174,-20.372038,-7.448511,7.408068,3.5138562,0.4084829
6.2941117,11.361973,-11.467354,3.511331,6.085405,0.008476107
4.8379397,7.558682,-15.308966,1.6407267,5.8206863,0.7866518
11.414663,9.718989,-29.27193,-0.9851502,1.34338,-0.118290365
13.086388,3.0799952,-37.884422,-4.863778,-6.247162,-1.9691874
-1.7004639,-0.8286768,-4.7229786,-7.1264,-7.8040457,-2.1822402
-3.2620168,-1.101709,11.472144,-5.2344904,-7.886071,-1.0626473
-8.0999565,-5.609136,26.215885,-1.4149843,-5.7832394,-0.38780227
-14.64794,-19.893034,45.05032,3.3408887,1.8951869,1.0939806
6.844966,-20.649858,-11.366763,-1.5902203,-3.2505732,0.3291207
-2.572251,-15.040723,-23.643633,-5.506665,-3.9057107,0.14642785
2.2465284,-5.0487013,-15.074254,-5.751676,-2.971474,0.13311204
5.9635987,-3.3817677,-17.16271,-6.380715,-3.0556297,0.1506889
-5.364844,-14.68626,-13.186978,-9.446546,0.49489674,0.91821194
13.713882,-83.044914,8.741821,-5.7133265,5.3248057,3.768327
21.89527,-65.278656,33.108753,-7.2558293,0.8038234,-3.2198079
-16.377144,-21.114492,21.521646,-6.188967,-0.7445385,-3.409425
-4.3014555,-5.949229,8.387359,-4.5181,-1.2819643,-0.9060534
6.356382,-3.1470559,15.131734,-0.6096445,-0.664111,0.08197936
18.867964,-4.785249,32.529156,2.4503276,1.7897258,-1.0743653
0.47900394,-3.3817677,0.89573735,2.8098543,1.5170181,-2.209937
-14.566509,4.167334,5.479805,2.2468622,-2.0164642,-0.89806396
-6.821016,-0.3161426,2.4141798,6.2874103,1.8941216,1.5749475
-1.9447559,-4.91937,0.081430666,6.349728,3.1601884,2.231683
1.1879297,-13.527071,6.327642,6.9654512,5.4670186,3.149941
14.015655,-38.478386,21.152813,8.152156,3.7972164,2.9262354
1.465752,-50.520546,10.049502,7.8842416,-0.62629414,0.2875754
-12.650494,-58.78815,5.9156985,8.281586,-0.7445385,0.72007275
-2.1124072,-34.3829,-3.9374123,8.995846,3.8084018,1.2915871
11.108101,-4.416416,-12.822935,6.9169817,4.692039,0.81434864
8.919053,21.516857,-9.81958,4.329454,5.279,-0.09591981
-2.1459377,14.547349,-13.670772,2.6063888,4.6638093,-0.4991224
18.489552,3.7218604,-39.910606,-3.276534,-0.70778686,-1.4014014
19.600842,3.8655617,-42.57866,-3.9338024,-2.1325781,-1.7540039
-0.9627979,-0.847837,-7.434141,-7.7591667,-8.871441,-2.2552109
-1.1687696,-1.9399658,3.9374123,-6.364203,-9.309797,-1.2884834
-4.272715,-4.248765,20.007994,-3.2328582,-7.0136194,-0.36223593
-1.3268409,-25.851841,51.11451,1.1693472,3.18682,1.4199516
10.063872,-27.830128,-16.458574,1.476676,-0.14000088,0.52619463
0.9580079,-23.22211,-33.209343,-4.278415,-4.8905478,-0.22854523
-0.37362307,-8.52148,-13.6995125,-4.808917,-3.7661612,-1.1867507
-6.8928666,1.2837305,-8.147857,-4.5058494,-4.394667,-1.3896835
-10.403965,-3.999683,-21.579126,-7.989264,-3.0050297,2.4766939
-10.753638,-19.792442,-12.114009,-9.610596,3.299738,4.376593
20.81751,-80.736115,-1.7004639,-5.951413,7.830308,4.7355876
36.85456,-81.9432,23.19337,-5.780971,2.085869,-1.2181759
-15.610738,-9.393267,9.82437,-4.9745655,-0.2657021,-1.963861
-10.724898,-3.3530276,1.096919,-3.7836,-0.3914033,-0.63228047
1.341211,-0.57959473,18.824854,-0.6128403,-0.24919048,0.25987852
5.518125,-4.8283596,10.897339,2.8881514,0.4975599,-1.2410791
-5.254673,0.5460645,-5.6666164,1.4740129,-3.1898532,-1.0988663
-8.291558,5.3025737,10.174044,3.8910978,-0.37595695,0.040966675
0.4742139,-2.912344,-0.100590825,6.0493236,3.1729715,1.4833348
1.5711329,-4.9720607,0.18681154,5.788334,3.8584692,1.4689537
4.4259963,-16.372355,13.42648,7.005931,5.5426526,2.2162366
9.848321,-36.068996,17.2154,7.247746,0.87679404,2.0681648
2.0022364,-48.992523,8.756192,8.063207,1.0190068,1.160027
-13.287569,-62.42858,6.6198344,8.942582,1.1234028,1.7858698
-4.253555,-46.966335,-3.539839,8.903168,2.582815,1.4540399
5.7624173,-13.670772,-9.872271,7.672254,4.522129,0.61620945
11.093731,19.44277,-12.23376,4.9052296,5.892592,0.2827817
3.9374123,21.85216,-16.070581,3.1965454,5.394048,-0.72176266
10.284214,1.0729688,-22.115612,-0.51962966,4.200952,-1.2607865
12.535533,1.5519727,-33.089592,-3.3223405,-1.9434936,-2.748961
5.000801,1.8202149,-21.574337,-6.2331758,-5.9739213,-3.255494
0.5987549,0.9484278,-5.0918117,-7.449175,-8.389409,-2.0773118
-7.3814507,-2.548301,19.778072,-3.5481765,-9.51486,-0.9353482
-22.767057,-18.642834,10.533297,-0.29645672,-2.7371156,1.2692165
-8.674761,-30.804743,41.994274,1.085724,5.530402,1.9909333
3.439248,-35.743275,2.8979738,3.5566049,1.9617659,1.2345955
5.0487013,-3.8224514,-22.767057,-4.4957294,-1.8774471,-0.45171815
5.647456,4.88584,-19.720592,-5.2440777,-5.076436,-1.4056624
0.3784131,2.2465284,-16.525635,-8.147455,-7.2863274,-1.1265632
-10.676997,-5.9252787,-12.099639,-9.343747,-2.5965009,0.99757415
-0.21555176,-52.393448,1.2502003,-6.6939025,6.938149,5.869561
37.247345,-80.43913,24.754923,-7.123737,1.3705442,-3.0653446
-14.820381,-19.778072,27.830128,-6.678989,-0.59060776,-3.341248
-13.153448,-4.296665,14.470709,-5.04221,1.0024953,-2.5630722
-7.089258,-4.2248144,-0.49337405,-4.788677,-2.9746697,-2.1721203
7.5012016,-1.7004639,37.884422,3.543289,4.8406434,-1.2133822
-4.598438,-3.8320315,5.5803957,2.838084,1.6837319,-0.30897272
-9.192085,0.847837,-2.5530908,2.467372,-3.7975864,0.86920977
-8.047266,3.908672,10.293795,4.6346526,-1.3991435,1.9877374
4.737349,-9.575289,4.152964,5.796856,5.0254664,2.2343462
8.277188,-17.383053,12.305611,6.377958,5.2518353,2.5448709
19.849922,-35.652264,16.836988,7.250409,2.574293,1.6015791
19.55294,-48.135105,3.3578174,8.094632,2.8757627,0.095827796
-16.779507,-59.683887,2.3375392,9.339394,2.147122,4.5699387
-3.7074904,-51.15762,-2.1219873,9.535402,2.9183733,4.2295866
-0.36883304,-24.146587,-6.7635355,8.714616,3.5548687,1.6287433
8.626861,21.627028,-15.7113285,4.2298517,5.4441156,-0.025612354
10.600357,6.9168167,-18.039288,2.5025256,6.923768,-0.17474939
14.758111,4.497847,-23.384972,0.8769321,5.3833957,-0.84852916
19.078726,1.9160157,-34.4308,-1.9694545,-1.569053,-2.3414972
9.81958,2.7638526,-26.316475,-5.7090654,-6.3084145,-3.498907
-0.40715334,-1.7004639,10.4566555,-6.970339,-10.641377,-2.620064
-13.814473,-3.4727786,33.1327,-3.1066244,-10.273862,-1.5617237
-22.762266,-18.45602,12.545113,-0.13134074,-1.0476061,0.76747704
-3.8703518,-23.844816,35.963615,2.1632388,6.3277526,1.5488485
13.048067,-14.523399,-31.801071,-3.465086,-5.701214,0.15974365
2.5243506,-13.40253,-19.715801,-5.361789,-3.627144,-1.2565254
-3.68354,-11.242222,-14.796432,-5.8273096,-3.4982471,-0.84160495
-0.15328126,-10.130933,-12.9187355,-9.082758,-5.3587313,1.3006419
1.1160791,-20.233126,-5.1780324,-9.899816,-0.23108098,1.6713539
25.789572,-89.59769,4.1146436,-6.6635423,7.349341,1.9371374
28.697124,-63.937443,28.337872,-6.4957633,1.085586,-3.2395153
-12.669654,-11.591895,13.306729,-5.127431,-0.7168416,-2.7180684
-12.21939,-4.3397756,-0.35925296,-3.9694886,-3.592523,-1.5579953
2.0166066,6.342012,31.825022,1.3259411,1.3732073,-0.9460009
-1.4082716,-1.954336,20.175646,3.8436935,5.4936504,-0.54439616
0.8813672,0.09101075,-3.7937112,2.1067798,-1.8774471,0.013269798
-5.0822315,3.3434474,10.854229,4.723602,0.9684068,1.1467112
2.064507,-5.0726514,0.9915381,5.903915,3.3466096,1.7331393
1.1783496,-10.859019,7.726333,5.8463907,5.003096,1.4577684
1.2597803,-15.304175,9.369317,6.525497,5.068077,1.7773477
7.941885,-39.27832,11.500884,7.881046,-1.2974106,1.9584427
-4.5840673,-57.825356,6.5144534,8.816881,1.3007693,1.6266128
-8.487949,-62.44295,1.5184424,8.749237,1.0024953,3.3028064
-0.5939649,-47.40223,-4.047583,8.777467,2.5295517,2.247662
1.9878663,-16.501686,-9.455538,7.283965,3.9452882,1.5334022
8.875943,23.456821,-12.578643,3.3142571,5.737596,0.09689306
7.2760696,6.6246243,-13.948594,1.3600296,6.081144,-0.043189216
7.831714,4.7325587,-17.579445,-0.04079326,5.2097573,-0.7153711
9.465117,1.1448194,-29.650343,-6.0914955,-6.4112124,-3.7364612
1.4705421,-0.4023633,-9.216036,-8.226817,-9.3231125,-2.9279253
1.8058448,-1.5423926,6.782696,-7.0166774,-10.853365,-2.1279118
-10.796748,-2.8644435,27.806177,-3.2568266,-10.296764,-0.87036705
-6.3899126,-28.16064,38.516705,2.5723004,5.1170793,2.2615104
6.10251,-17.205822,-25.027956,1.4175538,1.0264637,1.813034
5.206773,-14.70063,-29.583282,-3.2791972,-6.5923076,1.4812042
-0.62749517,-8.703502,-19.035616,-4.8051887,-5.22291,0.6556243
0.05269043,-8.861572,-19.140997,-6.6305194,-4.164037,1.3123598
6.337222,-14.341377,-22.690416,-9.781038,-1.6244469,1.46416
5.4127445,-31.65258,-0.2778223,-10.040963,1.6565677,1.7054424
30.33532,-91.29815,11.649376,-6.6864457,5.867558,2.1469946
-20.065474,-19.255959,22.062922,-6.3871064,-1.3634571,-3.057355
-21.080963,-10.494976,9.139395,-5.5961475,2.077347,-1.0440052
-8.966953,-5.3025737,9.287886,-2.8781252,-0.54107296,-0.3633012
4.790039,-3.1039455,22.561085,0.44603258,-0.674231,0.56667465
2.0261867,-3.166216,-10.188414,2.047125,-1.6020763,-1.0157757
2.193838,2.5195606,-7.831714,0.29955873,-1.8566746,-1.1217694
-2.069297,6.0593996,16.444204,4.064736,1.1484365,-0.68181527
-2.1555176,-0.014370117,1.21188,6.1521215,3.1250346,0.8276645
1.1735597,-3.7170706,1.4705421,5.112956,3.725311,0.93685406
-0.5460645,-16.765137,14.106666,7.036291,3.2528663,1.9216911
11.05541,-36.054626,13.282779,7.5151277,1.7614962,1.7571077
8.52148,-54.314255,13.50312,8.640047,1.9846691,0.4926388
-16.463366,-68.62689,9.168135,9.336198,-0.15757774,1.3001093
-2.3327491,-44.715015,-7.33355,9.255238,4.020922,1.2111597
7.893985,-16.214283,-14.221626,8.307152,6.2798157,0.8122181
11.9128275,15.538887,-16.463366,5.223211,6.78049,0.2763901
2.7015822,10.183623,-18.29795,1.2481768,5.7296066,-0.28873268
9.73815,1.1112891,-38.334682,-1.9119302,0.8368466,-1.5547994
14.988033,-1.0106983,-38.83764,-5.391084,-5.6873655,-2.737243
2.2129982,-4.0427933,-14.221626,-7.608432,-7.5164247,-2.5550828
-0.60833496,-0.05748047,13.546231,-5.0656457,-9.077037,-0.8607797
-12.559483,-4.751719,21.406685,-1.6871594,-6.6077538,0.3307186
-16.051422,-18.714684,33.745827,0.05188475,0.7468318,1.8140993
7.965835,-25.128546,-15.687379,2.1467273,1.5031695,1.2857282
9.206455,-19.342178,-35.896553,-1.2626516,-2.9879854,0.7376496
-3.7027004,-12.545113,-19.792442,-5.5993433,-8.52949,0.31047857
-10.91171,-5.6522465,-15.342496,-4.6416707,-3.0977077,1.1174164
0.2682422,-7.6161623,-16.535215,-6.9746,-3.0865223,3.089221
6.6916847,-13.565392,-17.962646,-9.458796,0.44749245,3.0785682
36.183956,-81.18159,22.671255,-6.7476983,3.948484,-5.786403E-4
-0.18681154,-32.692017,32.217804,-6.616138,-1.673449,-2.8347147
-19.160156,-14.044395,8.631651,-5.582299,-0.6880795,-0.6360089
-14.427598,-4.4691067,16.128061,-4.355647,2.1897323,-0.2711558
19.778072,-2.6393116,30.067076,1.9011838,-0.25132102,-0.21309891
7.692803,-1.6765138,5.839058,2.2617757,-0.23161362,-1.8024734
-4.670288,-0.6562354,-8.770562,1.1437808,-1.6500132,-2.2834404
-7.247329,2.42855,11.663746,4.7805934,1.0179416,1.0002373
0.48379397,-2.6009912,-0.7185059,5.588064,2.7553878,1.2415197
-0.6514453,-7.055728,7.9706254,5.5065713,3.5191824,0.9581594
1.4082716,-13.3689995,8.962164,6.58888,4.0124,1.6644297
16.640596,-41.922424,12.248131,7.398481,2.939146,0.809555
-1.8776954,-57.906784,11.256593,8.337512,1.9585701,-0.62322575
-11.955938,-59.056393,0.98195803,8.912755,1.5447149,1.8678952
-4.1721244,-43.89592,-6.3947024,9.094382,3.2709758,1.8604383
9.216036,-6.255791,-16.501686,7.0938153,6.0593057,0.20235424
4.5074267,14.64794,-12.25292,3.4261098,5.388722,-0.60405093
3.1566358,11.994258,-16.607065,2.117965,6.092329,0.25029114
7.893985,8.5598,-32.342346,-0.2266819,3.8222501,-0.10124613
10.509346,4.87147,-45.02158,-3.4858587,-3.4002428,-1.613389
-0.043110352,-1.3747413,-3.903882,-7.5120254,-8.220032,-1.9899601
0.20118165,-1.4226416,11.088941,-5.2206416,-8.049589,-1.2139149
-6.595884,-3.1278956,24.007677,-2.4711943,-7.053567,-0.4874045
-14.087505,-21.387526,54.199295,2.164304,1.6624266,1.478541
11.682906,-28.366613,-20.73608,-1.9428229,-3.5349987,0.46494192
0.22513184,-19.155367,-26.067394,-5.1897492,-5.311327,-0.18060835
-3.1614258,-3.6739602,-11.098521,-5.27497,-3.8822749,-0.83255017
-1.4897022,-0.34488282,-14.724581,-6.0084047,-4.3169026,0.3855797
-7.1706886,-12.022999,-16.899258,-10.358944,1.1084892,2.1187649
0.79993653,-49.390095,-1.5184424,-8.1527815,4.7325187,4.714282
44.01567,-108.24531,14.125826,-5.725577,4.6014915,1.8583078
-10.001602,-33.602127,34.186512,-7.5077643,-0.59486884,-3.3950438
-12.971426,-3.0225148,10.811119,-5.2179785,0.8975667,-1.2298938
-11.874507,-2.8357031,9.498648,-4.984686,0.5854442,-1.2304264
19.797232,-1.0490186,38.06644,1.7291437,0.9385794,0.07505514
-4.6128078,-3.2811768,-5.829478,2.2932012,-1.9317757,-2.2008824
-10.600357,5.0582814,7.544312,3.058061,-1.5722489,-0.064494506
-5.6905665,1.465752,6.9886675,5.6077714,1.4957128,0.660418
-0.30177248,-3.1087356,0.7424561,5.7174935,2.902927,1.0987743
2.1650977,-9.651929,3.8895118,5.799519,3.3540664,1.335263
14.355747,-37.03179,11.697276,7.6355023,3.7247784,1.4982485
9.311836,-47.914764,10.849439,7.6381655,0.7361791,-0.5422656
-8.5598,-60.421555,7.558682,8.559087,0.5103431,-0.81870174
-12.808565,-59.71263,1.4418018,8.895711,1.6523067,1.1919849
2.4764502,-21.104914,-9.498648,9.19292,5.4105597,0.32113123
9.211246,17.761465,-14.743741,4.9883204,6.4944663,-0.08793032
1.092129,21.382736,-8.871153,2.8061259,5.276869,-0.7057837
7.5059915,3.0895753,-30.023966,-0.57076234,5.5474463,-0.46130553
16.377144,5.6187162,-45.19881,-4.011034,-4.6007957,-2.2669287
4.7229786,2.2273684,-23.317911,-6.8377132,-7.980347,-2.8698685
-1.7771046,-0.3305127,-4.119434,-7.085387,-9.50261,-2.2131329
-1.7771046,-0.3305127,-4.119434,-7.085387,-9.50261,-2.2131329
-7.6305327,-6.447393,24.754923,-2.804622,-7.451443,-0.52149296
7.5874224,-34.588875,29.942535,3.3414214,3.0344872,1.8370025
4.718189,-21.995861,-37.68324,-2.9894454,-4.985356,0.44843033
0.41194338,2.1603076,-16.305294,-4.1058426,-4.419168,-1.3795635
-6.456973,5.982759,-16.223864,-5.8214507,-7.260228,-0.74945956
-11.438614,1.6429834,-8.713081,-7.376737,-1.693689,1.8737541
-9.699829,-22.345533,-2.198628,-7.7799397,4.38471,5.5377316
23.02093,-79.89307,-2.9937747,-6.670467,4.0736527,6.245067
3.0225148,-43.66121,27.504406,-6.231578,-0.02601758,-3.3550963
-14.235996,-10.92608,13.000167,-5.4976106,1.0653459,-0.779287
-3.0033545,-2.7255323,10.188414,-5.0704393,-1.1887537,-2.1215203
12.075689,-2.2513185,13.627662,-0.61390555,-0.3386727,-1.0402768
9.79563,-1.1064991,17.02859,2.625031,2.40172,-2.2205899
-16.573536,0.06706055,-1.9687061,1.9374028,-0.04838813,-0.9193692
-16.463366,3.271597,10.724898,3.9869716,0.0959552,2.064969
-1.4226416,-4.0427933,2.802173,5.8666306,1.8115636,1.8481878
-0.13891114,-8.272398,5.1157618,5.643458,2.8390112,1.6995834
5.0726514,-15.912511,9.479487,6.720973,3.3322287,2.2268894
17.703985,-38.799316,11.951148,7.5843697,0.5833137,0.7040938
7.1132083,-55.171673,9.407638,8.180386,2.4054484,-1.381694
-16.559166,-61.872936,4.009263,9.090654,1.4190137,2.0436637
-0.977168,-43.273216,-6.09772,9.248313,3.2715085,2.2306178
7.031778,-12.410992,-12.19544,8.082914,5.2848587,0.8979719
5.767207,31.987883,-11.299703,3.4788404,5.0659466,-0.7521227
-1.7675245,6.6533647,-14.782062,1.7120994,5.1772666,-0.54439616
11.256593,1.6381935,-38.133503,-1.7116605,2.657916,-0.71963215
12.995377,3.415298,-33.559013,-6.5218625,-6.6556907,-2.2589393
1.5471827,-0.038320314,-8.3250885,-7.6521077,-8.684487,-1.7662544
-1.7483643,-2.5291407,12.22418,-4.9308896,-9.045079,-0.8677039
-14.413228,-11.692486,22.06771,-1.7212479,-5.088687,0.6987675
-2.3806496,-28.1319,38.262833,3.1459453,4.3692636,1.903049
14.068345,-21.847368,-24.443571,-2.144158,-3.5994473,0.44576716
-1.2933106,-15.423926,-23.624474,-6.187902,-5.8295784,-0.36223593
-4.2200246,-4.028423,-10.255474,-5.4033346,-4.0825443,-0.45651183
-1.2837305,-1.6573536,-11.088941,-6.152748,-3.5360641,1.3831999
-3.9182522,-9.862691,-17.699196,-8.6705,1.5095612,2.7478037
16.027472,-70.5477,-7.8891945,-8.005242,5.4755406,4.4921746
31.67174,-76.611885,34.919388,-7.114149,0.485842,-2.2861035
-18.992506,-17.895586,15.1413145,-5.6978803,-1.2489412,-1.0557231
-15.7113285,-2.6201515,13.943805,-3.9923918,1.0648133,-0.4708929
3.7314405,-3.7697608,14.111456,-0.54413074,-2.180515,0.39942816
16.94237,-4.9337406,23.452032,3.0282335,0.36014077,-0.69300056
-0.67539555,-2.0501368,-9.254355,1.2556336,-1.7831713,-1.8552041
-7.2808595,4.9720607,11.208692,3.7350366,0.058670945,-0.060233448
-1.0442286,-0.8909473,4.023633,5.6514473,2.6174362,1.6303413
0.22992188,-7.1323686,4.3014555,5.0192127,3.5261066,1.1589618
2.9746144,-17.871637,8.737032,6.3262925,3.9117324,1.7512487
15.505357,-39.92019,9.81958,7.999823,4.1317096,1.1504396
4.991221,-58.5726,16.841778,9.248313,1.609696,-0.968904
-13.814473,-65.364876,7.577842,9.750052,-0.611913,0.7397801
0.45026368,-48.86798,-10.293795,9.272815,4.019857,1.0029005
3.9757326,-7.247329,-16.540005,7.652014,5.439322,0.08570778
5.8677983,33.875156,-14.992823,3.799485,6.565839,-0.31589693
9.211246,5.3552637,-23.24127,1.4873286,6.277685,-0.39845493
5.1540823,4.5601172,-35.18763,-1.8245785,1.6102287,-1.186218
9.101074,-1.7771046,-25.4399,-4.3231564,-5.350742,-1.943621
-0.847837,0.93405765,-10.997931,-6.4728603,-7.580873,-2.0954213
-0.21076173,-0.25387207,5.4750147,-6.0462217,-8.995011,-1.6916859
-9.77647,-1.7914747,19.682272,-2.8674726,-8.7228365,-1.1920769
-13.967754,-15.174845,38.061653,0.3123419,1.6784056,1.1301996
10.2315235,-19.802023,-27.092463,0.7506982,0.1502837,1.5413916
4.5649076,-12.16191,-24.821983,-5.4049325,-8.025088,0.3653397
0.009580079,-16.779507,11.505674,-5.0123825,-5.555805,0.1373731
-6.456973,-14.863492,-20.8223,-6.0478196,-1.8694577,1.9009184
6.806646,-13.000167,-13.105548,-8.521363,-0.24652731,2.6391466
4.3493557,-28.428883,-7.180269,-8.353051,3.3237064,2.072426
37.587437,-79.5865,27.470875,-7.3288,0.975331,-0.9832851
-10.169253,-24.304659,27.451715,-6.3183966,-1.6729164,-3.3748038
-18.23568,-11.783497,7.917935,-6.081908,0.56626946,-1.1622496
-4.799619,-3.894302,7.6401124,-1.615254,-1.1253705,-0.11296404
12.760665,-3.3817677,32.414196,2.7821574,3.5985446,-0.26849267
0.9627979,-3.9805226,-5.0630717,2.1728263,-2.5474987,-1.4610562
-6.11688,1.6525636,2.6967921,1.851649,-2.1938307,-0.5268193
-3.8416114,0.3879932,5.982759,5.4415903,2.0283449,0.99544364
2.3614893,-5.585186,3.1614258,5.3355966,3.1090558,0.93472356
-1.6429834,-9.79084,5.958809,6.1047173,2.8480659,0.9507025
3.3242872,-26.68052,11.534414,7.60674,2.0342038,1.8210236
12.880416,-45.457474,14.245577,8.182516,2.0331385,0.7349865
-11.132051,-66.33726,9.125025,8.619274,-0.5602477,-0.5220256
-8.286768,-54.213665,0.613125,8.81049,0.27491963,0.68704957
-1.1783496,-28.606115,-8.775352,8.705561,3.6757762,0.069728814
11.170372,9.445957,-15.80234,5.467689,6.2973924,-0.35531172
2.562671,26.546398,-14.925762,3.1784358,7.2763705,-0.109235615
10.648257,5.5372853,-22.225782,0.32086402,5.927746,-0.2541116
8.636441,1.6765138,-38.92865,-2.9681401,-1.3000739,-2.0815728
0.37362307,-2.7782228,-19.806812,-6.22998,-6.594438,-2.6653378
-5.0774417,-1.8920655,2.2321582,-5.946087,-8.597668,-1.4349573
-6.5240335,-2.2417383,13.215718,-4.181476,-8.241337,-0.7057837
-14.422809,-12.23855,27.116413,-0.9489312,-1.8140639,1.0678816
4.018843,-20.084635,-2.5914114,2.953665,2.8177059,1.7778803
13.800103,-11.745176,-26.350006,-2.9692054,-4.0820117,0.4297882
-5.096602,-18.997295,-12.248131,-6.2928305,-6.5544906,-0.2493179
-11.505674,-16.496895,-19.61042,-5.5945497,-3.8977213,1.0604248
1.5711329,-10.106983,-10.758429,-6.923467,-1.6739817,2.7222373
9.833951,-11.405084,-6.2653713,-7.590855,1.4738748,2.2716305
31.73401,-82.88684,-1.1496094,-7.065147,7.7125964,2.275359
20.348087,-48.077625,28.02173,-5.9775124,-0.24919048,-2.9220665
-18.096767,-14.695841,15.993941,-5.437423,1.2150155,-1.7928861
-12.851675,-5.0439115,7.673643,-4.449923,0.09009625,-0.8943355
0.100590825,-0.6322852,9.105865,-0.90845114,-1.9962242,-0.449055
9.326206,-3.7601807,17.339943,2.1824136,1.446178,-0.8964661
-5.101392,-3.5925295,-0.23950197,2.254319,-0.44626442,-1.7087302
-12.262501,2.5051906,4.3637257,2.9179788,-0.71417844,-0.072483994
-3.4871485,-1.0106983,4.1098537,5.3920555,2.1029134,2.0164995
0.100590825,-6.600674,5.0678616,5.435199,2.8832195,1.9190279
1.2022998,-10.935659,8.071217,6.263974,3.2672474,2.3611126
14.001285,-34.756523,18.685944,6.7811604,-0.21190622,1.9152995
8.751402,-57.19307,13.182188,8.523933,1.7886605,0.17732051
-14.121036,-67.788635,5.6857767,8.733258,0.41766506,1.8375351
-0.5125342,-47.62257,-6.361172,8.693843,2.7138426,1.329404
6.835386,-14.188096,-12.506792,7.1822324,5.782337,0.95975727
11.060201,19.260748,-9.383687,4.453025,6.0017815,1.0535005
1.3028907,12.947476,-18.034498,2.7762985,5.8073707,0.15494996
11.299703,3.8368216,-32.89799,-0.40564632,3.2874875,-1.087681
14.523399,3.2093263,-41.936794,-3.1604202,-3.3038363,-2.3132677
2.7255323,-1.4370118,-9.570498,-7.582333,-7.6772795,-2.6339123
-0.87178713,0.7185059,9.359736,-6.187902,-8.977435,-1.6501406
-10.93087,-2.8883936,24.3813,-1.9300398,-7.3294706,-0.4245539
-10.672208,-19.193687,37.75988,0.7150119,2.5748255,1.3863957
6.567144,-23.863976,-22.206621,-0.07381646,-0.56078035,0.7461717
-0.21555176,-21.219873,-29.549753,-5.1471386,-8.398996,-0.09378928
-1.9303858,-7.3383403,-3.1853762,-4.4461946,-2.0297801,-0.49645925
-4.4259963,-0.12454102,-13.225299,-4.2230215,-3.2729437,0.7291275
-1.2645704,-2.42376,-23.571783,-7.659032,-2.6811893,2.0734913
-6.945557,-26.8338,-9.570498,-8.630553,5.478737,3.70015
44.97368,-104.96892,33.94222,-7.365552,7.339221,1.2447155
-17.22977,-22.800587,22.838907,-5.090147,-1.9424282,-3.2288625
-19.002087,-9.5561285,5.350474,-6.80469,4.1482215,-2.5465608
1.8729054,-3.300337,0.488584,-3.243511,-4.0655003,-1.383292
15.922091,3.7266505,39.939346,2.23834,0.29835543,-1.1670432
0.19160157,-6.1695704,10.111773,2.786951,3.1458073,-1.7295029
-11.730806,0.244292,-2.8836036,2.4561865,-0.9288292,-0.24026315
-11.266172,2.3135889,11.457774,5.0431814,0.85655403,1.5381958
-0.46942386,-3.4871485,-0.8669971,6.0914016,3.8755133,2.3323505
4.87626,-13.560601,10.030342,6.6911454,5.9218864,2.7904143
16.688498,-36.049835,17.277672,7.216321,2.1588397,2.4825528
10.581197,-51.516872,10.571617,7.526313,2.0693576,0.4249945
-14.935343,-58.37621,8.363408,9.18493,-0.36743486,3.3459496
-4.3301954,-55.291424,-1.2645704,9.361764,2.313303,3.1408863
2.548301,-31.120886,-6.0498195,8.5116825,4.036901,1.597318
8.147857,29.492271,-10.8925495,5.152371,4.6462326,0.35468704
5.1397123,11.208692,-12.597803,1.8985207,4.063,-1.4370878
3.9278321,-3.0799952,-14.2551565,0.09609322,6.806056,-0.76437324
21.210295,-0.12933107,-21.92401,-1.5151192,3.8510122,-1.9345663
9.910591,5.1684523,-27.044561,-4.8760285,-5.3075986,-4.131141
1.22146,0.05748047,-5.8821683,-6.96661,-9.388094,-3.1505656
-4.996011,-4.263135,14.64315,-5.046471,-12.59667,-2.3670635
-29.779675,-21.617447,18.25005,0.36453986,-4.084142,1.0662837
-0.75203615,-25.971594,16.348404,0.7059571,4.948235,1.6324718
8.013736,-16.094532,-19.150578,-2.1590717,-2.748301,1.2745429
1.0154883,-12.607384,-22.776636,-4.368963,-5.378971,0.18424474
-1.2549903,-6.6102543,-15.347286,-4.931955,-3.767759,0.13470994
4.267925,-6.7539554,-21.243824,-7.696849,-5.479106,0.7914455
5.4606447,-13.9102745,-13.39295,-10.679056,-1.560531,1.380004
9.139395,-67.668884,0.62749517,-6.6390414,4.3202615,3.9451609
28.898308,-61.02031,30.44549,-6.917608,0.42245874,-3.3284647
-16.578325,-12.760665,16.683706,-4.9489994,0.59876,-2.880521
-23.289171,-1.4609619,8.042476,-3.967358,1.1271312,-1.2677107
-1.6190332,2.6297317,13.306729,-1.091144,-4.223692,-0.3206906
9.287886,-4.6607084,17.16271,3.3526065,0.7953013,-0.85971445
-0.06706055,-3.2141163,-5.5468655,2.0428638,-0.08620502,-1.1249653
-5.479805,2.6393116,11.874507,3.201339,0.2663975,0.61248106
-2.2177882,-0.2203418,5.7911572,5.843195,2.6153057,2.0122385
1.1543995,-6.1743608,7.103628,4.9153495,3.9271789,1.1562985
1.0154883,-11.879297,9.364527,6.263974,3.6640584,1.8860047
12.353511,-30.670622,15.893351,6.9185796,0.5273873,2.0207608
14.954503,-61.753185,9.81958,8.448299,2.2706926,0.67053795
-17.435743,-72.02303,7.4101906,8.795043,0.2962249,2.1475272
-1.4705421,-46.664562,-8.57417,9.158831,2.4778864,1.7576404
0.9867481,-14.906602,-13.43606,7.8885026,4.8837867,0.3408386
6.706055,32.385456,-12.731924,4.0002875,6.014032,0.077718295
1.4897022,8.943004,-15.313756,1.3845307,5.363688,-0.33720222
9.766891,0.57001466,-28.352242,-0.7747605,5.132526,-0.66051
14.288687,3.3626075,-33.760197,-4.282676,-4.4958673,-2.2371013
3.7697608,2.9937747,-14.365328,-7.036385,-7.302839,-2.7713315
0.5125342,0.3879932,5.216353,-6.41214,-9.874388,-2.3239205
-13.6851425,-3.8799317,27.595417,-2.2304444,-9.187824,-0.8693018
-20.7744,-22.656885,27.02061,-0.3321431,-1.4657224,1.1115575
8.416099,-28.740236,2.8692336,2.216502,2.3623052,1.380004
5.513335,-16.314875,-29.15218,-3.7548378,-7.521751,0.60928524
-2.2608986,-12.291241,-18.776955,-4.7407403,-5.007194,-0.0011112725
-6.437813,-5.4271145,-13.464801,-4.225152,-3.034857,0.39303657
2.4189699,-8.210127,-18.32669,-7.342116,-2.8782632,2.3509927
1.3843213,-20.223545,-6.1073003,-9.1605215,1.2267334,2.8740375
36.33724,-93.93746,13.330679,-6.9612837,4.199354,2.5917425
-2.816543,-34.679886,26.249414,-6.530917,-1.0380188,-3.500505
-16.937578,-9.987232,8.631651,-5.581234,0.5114083,-0.2972548
-9.455538,-3.319497,14.303058,-3.7788062,0.7782571,-0.4842087
10.221944,-2.926714,17.919537,-0.2778146,-2.2449634,0.1672005
10.111773,-4.502637,17.603394,2.7406123,0.8965014,-1.5382879
-8.315508,-0.8909473,-7.6017923,1.8404639,-2.4068837,-1.8413557
-9.072334,5.479805,7.582632,3.4165225,-0.69447106,0.36800286
-1.2022998,0.3544629,3.415298,5.658904,2.6121097,1.0950458
0.51732427,-4.90979,2.6967921,5.443188,3.9591367,1.0668163
3.0895753,-14.240787,9.005274,6.5574546,4.2542152,1.7496508
13.043277,-39.374123,16.147223,7.7436266,3.8494143,1.6500486
4.2056546,-59.056393,19.208057,8.77427,0.68770957,-0.32015797
-13.129498,-68.51193,8.056846,9.48853,-1.018844,1.170147
-3.276387,-48.297966,-8.54064,9.752183,3.19694,-0.086332425
5.4462748,-11.567945,-16.669336,8.015802,5.184191,-0.6892721
-0.24908204,40.47583,-12.032578,3.6119986,6.278218,-0.16942306
4.258345,10.212363,-17.842896,1.883607,4.889113,0.829795
11.869718,3.0368848,-38.291573,-1.8576018,3.58949,-0.1981852
13.153448,2.0309765,-30.201197,-4.643801,-4.254585,-2.1231182
-1.829795,-0.5364844,-8.717872,-6.3056135,-7.7262816,-2.4943628
-2.663262,-0.2682422,2.4045997,-5.734632,-7.988869,-1.794484
-3.3626075,-1.0059083,16.238234,-3.6413872,-5.6527443,-0.7020553
-5.6809864,-19.30865,43.172623,0.3437672,2.3122377,1.55524
10.662627,-23.643633,-4.1864944,1.3381916,0.41873032,1.3400567
7.0030375,-16.97111,-31.844181,-4.746599,-7.392321,-0.07994084
-7.9897857,-18.935026,-3.9469924,-5.2531323,-3.9057107,-0.84373546
-15.419136,-6.0210795,-8.49753,-3.2456415,-1.1306968,-0.035199735
-6.1552005,-1.0585986,-15.467037,-6.539439,-4.8207726,2.6956058
-5.388794,-14.968873,-20.58759,-9.354933,2.3692296,3.792828
26.383535,-92.85012,-10.590776,-5.6611285,12.314006,3.7539458
-2.2608986,-34.0955,44.638374,-6.1143985,-2.9341896,-3.9037075
-19.193687,-13.34505,13.608501,-5.051265,-0.69979733,-2.6088786
-8.281978,-0.7951465,6.3994923,-3.8592339,-1.9450915,-0.5092424
14.202466,1.4418018,23.408922,0.9781322,-0.58528143,0.06386986
9.685459,-7.1371584,16.779507,2.2479274,1.1574913,-1.6378901
-6.4330225,-0.89573735,-3.8128712,1.6380635,-2.3237932,-1.5462774
-9.436378,2.5770411,7.3383403,3.6519458,-0.72749424,0.46334404
-2.0357666,-1.3747413,2.6105714,5.075139,2.0608354,1.4577684
-0.613125,-5.1732426,2.682422,5.0053644,2.7692363,1.5563054
4.641548,-14.168936,7.544312,6.2810187,3.4004054,2.2210305
15.471827,-36.835403,13.148658,7.8293805,2.913047,1.8236867
6.9934573,-58.68756,14.058765,7.8869047,1.430199,-0.6306826
-19.054777,-65.249916,9.259146,8.4696045,-1.3623918,1.3107619
-3.530259,-53.413727,-6.4282327,9.557773,3.0648472,1.4753453
3.5877395,-17.268091,-10.935659,8.407287,5.2236056,0.04948879
8.018526,26.742788,-13.100758,4.0349083,6.566904,0.08410989
1.9878663,8.47837,-14.959292,2.0886703,5.554903,-0.4309455
6.3132715,2.0166066,-32.102844,-0.5696971,4.893374,-0.7409375
18.858385,2.9602442,-36.84019,-4.204912,-4.681223,-2.189697
2.4860303,0.51732427,-12.583433,-6.463805,-7.198443,-2.9534917
-2.069297,0.5412744,3.5781593,-5.935967,-9.310329,-2.032038
-7.3575,0.5412744,17.914747,-3.6616273,-8.661051,-0.77183014
-13.780943,-15.404766,20.185225,-1.7984796,-2.2002225,1.3214146
9.263936,-33.060852,18.451231,2.2809505,2.2760189,1.4535073
7.5395217,-11.9128275,-32.653698,-0.8972659,-3.8220875,0.2199311
-4.038003,-7.558682,-14.408438,-4.333809,-7.8855386,0.24496481
-6.3994923,-3.784131,1.4609619,-3.1098201,-1.7703881,-0.19179362
2.7590625,-8.981323,-19.782862,-6.8504963,-3.62022,3.2346294
8.808882,-16.257393,-14.216837,-9.328301,1.6373929,2.6210372
12.985797,-73.36903,-8.076006,-5.951413,7.752011,3.6330385
20.194805,-58.69714,33.764988,-6.650759,1.2528324,-2.5247228
-19.399658,-16.645386,13.613292,-4.9628477,-0.12295664,-0.71963215
-19.097887,-5.1876125,15.213164,-5.447543,2.897068,-0.74466586
6.2797413,-5.240303,1.9878663,-1.3771675,-3.8907971,-0.014959711
17.421373,-0.047900394,26.115294,2.100921,-0.6012604,-0.5902025
-0.60833496,-3.0129347,-0.1341211,2.3304853,0.16253424,-1.9968842
-9.64714,4.3062453,4.1864944,2.3496602,-1.1903516,-0.31483167
-5.6666164,1.6477735,7.9802055,5.606706,1.3614894,1.7661624
0.68018556,-3.3482375,1.5950831,5.1475773,3.7157238,1.5706865
0.6993457,-9.958491,6.2510014,5.7494516,4.62759,2.0777524
15.1413145,-31.70048,12.4541025,6.5329537,3.2752368,1.9126363
13.871954,-56.426662,12.070899,7.963604,3.5218456,-0.33400643
-18.005758,-60.694588,11.160791,9.507173,1.645915,1.1547006
-9.73815,-55.18125,-1.1160791,9.778282,3.4147866,3.0327618
0.51732427,-38.746628,-6.337222,9.215822,3.9841704,1.9621711
6.543194,14.815592,-14.676681,4.8530316,5.0238686,-0.53267825
3.2045362,17.852476,-16.314875,2.5941384,4.8534265,-1.0242978
7.2281694,-0.7711963,-21.464167,0.6377802,4.170592,-0.28180847
7.1323686,1.0250684,-33.554226,-2.44403,-0.6886121,-0.4676971
12.492422,-1.7244141,-20.61633,-4.892008,-5.1936154,-1.4637194
1.6765138,0.28261232,-2.42855,-6.286439,-6.9821944,-1.9127283
-0.9867481,0.9867481,15.84066,-4.8280916,-9.610734,-2.3010173
-15.337706,-1.341211,22.709576,-1.8943534,-6.031446,-1.0056556
-4.095484,-17.814156,13.196558,3.4633942,3.3221085,1.1009048
11.692486,-11.630216,-24.51542,-2.4493563,-3.2228763,0.36587232
-1.5040723,-17.363892,-16.99985,-6.361007,-8.20565,0.4249945
-7.568262,-16.027472,-18.24526,-4.4930663,-1.8556092,0.86707926
0.89573735,-9.292676,-15.720909,-6.9287934,-3.3214133,1.593057
5.336104,-10.98835,-9.963282,-8.334942,-0.74134266,1.5733496
11.03625,-66.126495,-13.39295,-6.741307,6.1732893,3.6681921
25.612339,-57.50442,28.927048,-6.907488,1.0344533,-2.6898386
-22.024601,-19.155367,25.435108,-6.4664683,-0.9858209,-2.624325
-9.939331,-5.1540823,8.52627,-5.0427427,0.733516,-0.5113729
5.8055277,-7.1611085,2.792593,-2.3923645,-1.4577329,0.24123639
22.642515,-6.4090724,33.817677,2.0593755,0.73990756,-1.2533296
-5.6426663,-3.9805226,-3.9278321,2.2463295,-0.59060776,-2.4789164
-12.051739,4.047583,4.430786,2.4817529,-2.1304476,-0.4394676
-4.253555,0.1820215,2.7255323,5.633338,1.559096,0.90489614
-0.7089258,-3.530259,2.672842,5.4426556,3.1878853,1.096111
0.6466553,-10.99314,5.709727,6.3124437,4.025716,1.8002509
11.649376,-34.23441,12.5738535,7.292487,3.6832333,2.0282176
16.731607,-51.401913,15.208375,7.856012,2.0911953,-0.36276856
-18.25963,-68.06646,13.6851425,9.119416,-0.8984692,0.31154385
-1.8441651,-53.84483,-4.9720607,9.968432,2.6850803,1.4039725
1.3795313,-21.9767,-9.287886,8.873873,4.884852,0.3472302
8.986114,12.640914,-14.964083,5.29991,6.0891333,-0.58221304
6.9934573,17.608185,-12.866045,3.4921563,7.1389513,-0.6850111
8.54543,5.1876125,-30.009596,0.1450954,4.7953696,-0.44053286
12.4541025,1.1591895,-41.58712,-3.929541,-4.3025217,-1.6693155
1.9734962,0.086220704,-22.556295,-6.3620725,-6.9555626,-2.6861103
-5.1540823,-0.23950197,3.63564,-6.815875,-8.923106,-1.4365551
-4.3014555,-1.0681788,19.016457,-4.0344696,-8.390474,-0.61363834
-9.704619,-13.40253,24.855515,-1.1715714,-1.3080633,0.79464126
9.201666,-27.389444,0.91010743,3.5566049,2.1354039,1.532337
20.113375,-12.276871,-39.1921,-3.4741406,-4.0782833,-0.9071187
-4.033213,-14.092296,-16.731607,-7.4513054,-8.605124,-0.90019447
-17.11002,-18.47997,-9.527389,-3.660562,-3.5397925,0.47506192
-7.424561,-12.382252,-10.111773,-6.878726,-3.8274138,3.1579304
1.5088624,-9.920172,-13.886324,-7.740525,-0.9352208,3.2079978
2.8213332,-55.8327,-23.950197,-7.65051,7.2039323,4.4106817
38.152664,-65.91094,35.11099,-5.782569,1.3034325,-2.2456236
-18.446442,-16.750767,17.627344,-5.5934844,-2.4345806,-1.5984753
-20.970793,-8.277188,10.260264,-5.238219,1.6150223,-0.83681124
1.2549903,-4.5888577,4.3254056,-1.6014056,-1.2281685,0.2380406
16.928,-3.7649708,28.060051,2.70173,1.2421798,-1.0402768
-1.1352394,-2.2129982,-4.608018,1.702512,-1.7181901,-2.198752
-11.342813,3.9134622,3.2620168,1.3435179,-1.7133964,-0.8011249
-6.351592,0.23471193,7.2904396,4.8125515,1.7529742,1.0929153
-0.7232959,-4.5553274,1.9160157,4.8210735,2.287204,1.154168
-1.9687061,-8.420889,6.715635,5.544921,2.862447,1.4732147
5.4223247,-19.366129,11.247012,6.7486696,3.0914788,2.0798829
14.566509,-39.829178,16.975899,8.138841,0.73511386,1.0913174
6.5623536,-55.449493,12.487633,8.520205,1.2645503,-0.9140429
-12.262501,-65.22597,6.701265,8.791315,0.7063517,0.53152096
-1.2358302,-43.89592,-8.234077,9.159364,4.4411693,0.680658
9.067544,-9.192085,-14.988033,7.265323,6.6302876,0.7488349
10.98835,20.510948,-11.247012,3.9789822,7.137886,0.63431895
1.9064356,14.844332,-15.969991,2.0913334,5.4190817,-0.0511787
6.1552005,1.0873389,-30.814323,-0.27674934,4.0480866,-0.89806396
17.660875,-1.7914747,-33.92785,-3.8714843,-4.1736245,-2.8570852
4.9529004,-0.5412744,-17.977016,-6.761014,-6.9150825,-3.5372567
-0.21555176,-0.32093263,5.254673,-6.881389,-9.615528,-2.6152701
-14.873072,-1.3507911,31.240637,-2.1217875,-9.541492,-0.9252282
-17.708775,-16.401094,20.95642,0.09449533,-0.1735567,1.5200864
4.0763235,-23.672375,13.163028,2.0583103,4.7058873,2.102786
12.305611,-21.262985,-31.925611,-2.8317862,-6.458084,0.6428411
-2.2944288,-14.274317,-15.112574,-4.5607104,-3.906776,-0.67169523
-9.311836,-4.152964,-13.282779,-4.3881373,-3.6180894,0.5160746
-2.0261867,-7.094048,-16.95674,-6.9090858,-4.7419434,2.5848181
1.092129,-15.285015,-12.118799,-9.244678,0.33350915,3.1206462
14.868282,-79.5865,-4.775669,-6.641172,6.093927,4.3515596
1.5328126,-39.742954,31.441818,-6.913347,-0.82709646,-3.7156885
-20.970793,-18.144669,25.63629,-6.155944,-1.6335016,-1.804604
-9.273516,-5.206773,12.358301,-5.0533953,0.6861117,-0.5582446
2.0070264,-5.633086,0.67539555,-2.5388384,-1.8785124,-0.018155504
14.006075,-0.67539555,28.227701,2.3981297,1.0967712,-1.4072604
-5.5803957,-2.0261867,-0.6562354,1.8202238,-1.560531,-2.1843708
-9.2256155,3.5494192,-0.85741705,1.8468554,-2.220995,-0.08899559
-2.8979738,2.0932472,8.028106,4.6282606,0.8150087,1.1749407
2.5530908,-3.3051271,2.44771,5.0192127,2.6243603,1.0034331
1.7627344,-7.223379,7.424561,5.194449,2.3324778,0.93632144
9.671089,-20.367247,11.476934,6.739615,1.6288708,1.1850607
17.2154,-39.259163,11.390714,7.7031465,2.0954566,0.15921102
-9.062755,-60.79997,15.720909,8.839785,2.2339408,-1.5521363
-18.714684,-64.809235,2.8404932,9.455507,1.6118265,1.1983765
-1.7771046,-43.08161,-9.144185,9.487998,4.478453,0.9352562
3.5781593,-14.446758,-13.527071,7.986507,5.660364,0.18371211
6.4186525,21.301304,-11.563155,3.9640684,6.4811506,-0.22588208
1.0729688,12.008629,-15.237115,1.9150324,4.581784,-0.30897272
6.8593364,1.4178516,-29.042007,-0.40085265,4.1823096,-0.5475919
15.797549,0.5604346,-33.544643,-3.6973135,-2.9123516,-2.5177987
6.2749515,2.083667,-20.980371,-6.3413,-5.366188,-3.6640232
0.3161426,0.40715334,1.4418018,-6.898966,-7.8391995,-2.6477609
-7.1563187,-1.0729688,21.545597,-3.6893241,-8.704727,-1.5345595
-19.60563,-19.758911,18.269209,0.53604746,-2.3429677,1.1674838
3.166216,-29.870686,25.60755,0.743774,4.830523,1.4748126
7.563472,-13.004956,-14.4802885,0.33311456,0.16146897,0.07239198
-0.28261232,-5.8103175,-29.25277,-5.159389,-9.410997,-0.38886753
-8.655601,-5.4175344,-6.710845,-3.282393,-1.0268335,-1.1553253
-10.629097,-8.286768,-16.377144,-5.7607307,-4.1246223,2.5470014
1.4705421,-13.167818,-22.944288,-9.223906,-4.099589,3.5536761
4.90979,-59.142616,-7.4101906,-6.484578,5.309892,3.3139918
34.684673,-70.85426,30.033546,-6.006807,5.143711,-1.4946121
-19.327808,-19.002087,28.060051,-5.518383,-3.3959818,-3.073334
-20.127745,-7.0174074,4.9002104,-5.8214507,0.979592,-1.0679736
3.6979103,-2.806963,-1.346001,-2.9431064,-3.6095672,-0.22321892
21.775518,-0.57959473,28.922256,0.97227323,0.2695933,-0.40857494
5.997129,-8.200547,18.16383,1.9959924,0.111401536,-2.2179265
-12.521163,-1.1639795,-4.512217,2.280418,-2.2854435,-0.8192344
-8.693921,3.515889,7.9802055,4.070595,0.09808573,1.2761408
-0.53169435,-0.71371585,3.0608351,5.4106975,1.9436564,1.6990508
3.0847852,-7.8891945,2.2608986,5.4357314,2.973767,1.5706865
9.924961,-19.083517,12.18107,6.8472066,3.4435487,1.7970551
18.796114,-41.740402,11.836187,7.4730496,3.6246436,0.83032763
-8.56459,-51.18157,14.801221,7.8032813,0.91727406,-0.66317314
-16.96632,-63.118347,7.2760696,9.294652,0.32765022,2.2966642
-4.4259963,-53.86399,-5.245093,10.039804,3.231561,1.438061
3.046465,-13.943805,-11.663746,8.396102,5.0473046,0.13257942
10.250684,18.978136,-13.215718,4.181382,6.165832,0.18264684
-2.078877,14.063556,-10.499766,1.6140951,3.6640584,-0.31003797
6.423443,3.2380664,-28.371403,-0.18779975,5.152233,0.07665303
19.054777,3.68354,-34.665516,-3.4150186,-1.2004716,-2.14176
10.083033,3.4248781,-25.339308,-6.286439,-5.445018,-3.778539
-0.4406836,-0.014370117,-0.5987549,-7.036385,-8.908725,-2.9295232
-6.466553,-3.515889,20.841461,-3.9540422,-8.5087185,-1.500471
-15.610738,-18.38417,20.606749,0.38424724,-3.2527037,0.80156547
-2.9841945,-23.931036,24.903414,0.19782598,4.102415,1.834872
8.119117,-11.170372,-13.4743805,0.46520737,1.0605522,0.5166072
4.742139,-9.977652,-34.435593,-4.6086473,-9.424314,-0.43840232
-5.9156985,-8.6077,-14.992823,-4.550058,-3.3821332,-1.6267048
-12.822935,-8.243657,-12.516373,-4.411041,-3.7741506,0.6087526
0.34009278,-9.996812,-20.884571,-8.15651,-3.6740158,3.225042
-1.1735597,-22.115612,-11.05541,-8.834019,2.4214275,2.9150503
26.6901,-88.47202,-1.4801221,-5.646215,8.733652,1.7603035
7.8412943,-36.001934,35.748062,-6.643835,-1.5173877,-3.7950506
-16.793879,-15.500567,10.011182,-5.7117286,0.05707305,-1.5798331
-9.718989,-4.267925,3.9757326,-4.3029165,-0.6257615,-0.8250933
6.0258694,1.4897022,19.112257,-0.29113042,-0.5037887,0.27798802
12.717554,-5.374424,24.606432,2.9019997,1.2070261,-1.6767722
-7.4101906,-2.687212,-7.3862405,2.0055797,-1.5940868,-1.8994125
-11.745176,3.7314405,7.788604,3.3020065,-0.9565261,0.26094377
-4.799619,-0.1820215,6.1073003,6.051454,1.5415192,1.2617598
-1.5567628,-4.3445654,1.092129,5.9188285,2.5679014,1.6894634
2.931504,-21.531227,16.683706,7.7297783,2.931689,2.4964013
14.64315,-42.133186,16.228653,7.8363047,2.5119748,1.5280758
1.0729688,-58.874374,17.818947,8.515411,-0.23747258,-0.5539835
-11.577525,-67.05097,4.6654983,9.221682,-1.2457453,1.0071615
-0.728086,-42.281677,-7.151529,9.763369,5.268347,0.6103505
5.633086,-8.904683,-13.895904,8.419004,6.1226892,1.073208
12.085269,40.930885,-14.140196,4.3433027,6.4305506,0.51713985
0.34967285,10.169253,-11.635005,1.2231431,4.290967,-0.6914027
6.821016,-2.9841945,-26.972712,-0.68794143,5.7221494,-0.70791423
13.867164,-1.590293,-27.504406,-3.2791972,-1.0625199,-1.7646565
4.129014,0.6322852,-18.839224,-5.740491,-6.5209346,-3.1100855
-1.22625,-1.8154249,-0.7951465,-6.8419743,-10.415542,-2.46347
-11.673326,-2.8596535,18.31711,-3.9449875,-9.628844,-1.1670432
-14.997613,-15.955621,20.036734,-1.6615931,-0.7200374,1.3895915
6.1216702,-23.983727,23.811285,2.3837485,3.874448,2.066567
17.512384,-15.495777,-34.24878,-0.9036575,-1.9440262,0.8180771
-2.6488917,-15.308966,-16.075373,-5.5498085,-7.450378,-0.19658731
-11.409874,-14.111456,-4.8427296,-3.410225,-2.5959682,-0.932685
-3.6068995,-7.32397,-12.396622,-6.5825825,-4.46817,2.0228913
4.9529004,-5.096602,-15.610738,-8.183675,-2.3307173,2.2625756
-4.272715,-39.24,-10.648257,-6.324256,6.148788,3.8636682
39.824387,-87.96428,25.48301,-5.600941,5.86596,0.443104
-21.449797,-22.757477,28.222912,-5.4342275,-2.6710694,-3.2693427
-18.887125,-6.0498195,8.353828,-5.570581,2.5418024,-1.6469449
1.4465919,-1.7627344,-0.82388675,-3.3803973,-4.336077,-0.9934051
18.762585,1.8633252,27.193052,1.2881242,0.56360626,-0.93161976
3.2428565,-6.710845,18.082397,1.802647,1.4152852,-1.7513407
-13.37858,-1.2358302,0.043110352,2.3981297,-0.6662415,-0.2972548
-7.975415,2.4668703,5.7911572,3.5992153,-0.31790006,2.020228
2.0357666,-2.3662794,3.4440382,5.352108,2.1018481,1.9648343
2.672842,-7.1371584,4.5409575,5.4804726,3.9362335,1.8897331
11.366763,-21.315674,12.353511,6.587815,3.9937577,2.183746
17.550703,-37.85089,10.384805,6.974506,2.5098443,1.2804018
-0.22513184,-56.752384,12.545113,7.759606,3.2565947,-0.02188393
-17.991388,-58.917484,6.8114357,9.3591,1.2507019,3.0391536
-1.2597803,-47.014236,-6.06419,9.537,3.2448769,3.0956125
3.0081446,-9.733359,-9.455538,7.4336348,3.5841637,0.74776965
7.8652444,19.236797,-11.510465,4.143033,4.91894,-0.13639987
5.8917484,7.8844047,-13.551021,2.1067798,5.608166,-0.7611775
8.468789,-2.672842,-18.44165,0.27559027,5.298707,-0.88474816
11.199112,1.4082716,-28.03131,-2.475988,-0.88515335,-1.7124586
14.130616,1.4418018,-23.681953,-4.4781523,-5.449279,-2.9955697
-0.5364844,0.8286768,-2.44292,-6.344496,-8.992881,-2.497026
-3.1326857,0.7041358,14.370118,-4.810515,-10.764949,-2.2584066
-21.282145,-9.972861,17.742306,-1.5295002,-6.180583,0.05428248
-1.0011182,-26.402697,39.331013,2.4940035,5.5975137,1.582937
13.34505,-22.671255,-30.776003,0.39276937,-1.2393538,1.0444458
-0.5412744,-17.478853,-26.766739,-4.3838763,-3.9600394,0.08197936
0.11496094,-4.129014,-3.415298,-3.9013116,-2.9240696,-0.94546825
-1.4178516,-2.7590625,-18.772163,-6.247024,-5.970193,0.5970347
-6.8018556,-10.9069195,-18.063238,-9.720851,-2.3909047,2.2338135
-7.391031,-33.017742,-3.3099172,-7.5929856,4.717605,4.549699
39.39807,-88.98935,19.921774,-6.1783147,5.314686,0.09955622
-17.646505,-22.537134,29.38689,-6.478719,-1.6723838,-3.3204753
-14.901813,-9.637559,9.053174,-5.044873,-0.4776897,-0.90924925
2.6776319,-5.6761966,1.5998731,-3.9492486,-2.3925025,-0.69513106
18.815275,-1.2310401,25.190817,0.4891758,-0.34932536,-0.38886753
5.973179,-5.527705,17.498013,2.4327507,1.2485714,-2.308474
-11.979888,0.16765137,-7.180269,2.0274177,-1.2931496,-1.1025947
-9.235196,4.4451566,6.8018556,3.1432822,-0.89900184,0.5704031
-3.5254688,0.3879932,3.9853127,5.5699544,1.4179485,0.9762689
-1.1208692,-4.5601172,2.7830129,5.5358663,2.730354,1.3752104
3.2236965,-15.514937,10.916499,6.683156,3.283759,2.1555166
13.939014,-39.388493,12.502003,6.95107,2.3276842,1.1792017
0.613125,-59.50187,15.500567,7.9220586,0.0959552,-0.86344284
-10.91171,-62.30883,4.967271,9.7420635,0.59929264,1.3496441
-2.2896388,-44.652744,-8.119117,9.968432,4.3218594,1.6404612
5.4223247,-3.8464015,-11.788286,7.2599964,4.751161,1.0721426
9.68067,27.609787,-11.366763,3.6162596,6.3394704,0.15867838
2.936294,9.062755,-13.785733,1.4708171,5.127199,-0.6413352
3.1422658,-0.9867481,-26.397907,-0.13347127,4.570066,-0.8128428
8.818462,-2.9889846,-28.534264,-2.952161,-3.0194108,-1.081822
5.3025737,-0.16286133,-17.13876,-5.139682,-7.046643,-2.3596067
-0.06227051,-0.23950197,-0.60354495,-6.2757864,-9.062123,-2.2126002
-6.0498195,0.35925296,18.12551,-4.1692257,-8.955064,-1.707665
-12.755875,-9.814791,26.421856,-1.4480076,-0.885686,0.32326174
1.8441651,-23.600523,-0.5604346,2.8455408,2.6605792,1.8284805
9.75252,-14.025235,-28.428883,-4.159106,-6.1257215,0.2865101
-5.3552637,-16.650177,-11.170372,-5.7261095,-6.5299897,-0.20510942
-11.611055,-11.079361,-16.458574,-4.9804244,-3.211691,0.48038825
-0.1580713,-8.780142,-12.152329,-6.859551,-2.967213,2.2769568
3.319497,-12.913946,-7.9562554,-7.5743437,1.9127638,2.9533997
12.25771,-69.26397,-19.802023,-6.58205,6.178083,3.9606073
18.149458,-50.03196,34.09071,-6.435576,-0.028680742,-3.5303323
-18.33627,-14.65273,12.923526,-5.624377,-0.8414775,-1.0583862
-7.7167535,-4.88105,7.3622904,-4.587342,-0.2870074,-0.6258889
5.015171,-2.668052,8.56938,-1.4208434,-1.1413494,0.21886583
16.338823,-3.899092,28.376192,2.1946642,1.114348,-1.1707716
-5.7959476,-3.7985013,-0.5891748,2.236742,-0.94107974,-2.2626677
-11.692486,0.40715334,-3.2620168,1.8575081,-1.7517459,-0.83041966
-3.7697608,1.4944923,6.7635355,4.7358527,1.2469735,1.2468461
1.5328126,-3.1853762,2.1411476,5.7004495,3.0957398,1.1429827
1.4705421,-7.4916215,5.992339,6.0019193,4.1455584,1.52488
9.216036,-23.816074,16.094532,7.1444154,3.2576602,1.9792154
15.696959,-45.835884,10.308165,7.2370934,3.26778,0.96348566
-10.662627,-61.657387,14.006075,9.03526,1.6784056,0.7158117
-10.720108,-61.662174,1.7866846,9.793729,1.405698,2.7824247
1.2454102,-36.926414,-7.9849954,9.28826,3.7178543,1.6356676
7.9849954,7.089258,-15.203585,5.554508,4.070457,-0.2541116
4.023633,27.217003,-12.032578,3.3472803,5.2955112,-0.8517249
2.0453467,6.3132715,-14.097086,1.5453856,5.3210773,-0.485274
7.3383403,-0.086220704,-30.958023,-0.7135078,3.7700522,-0.6045836
17.804577,1.1591895,-31.207106,-4.6038537,-4.3904057,-2.2179265
1.6621436,0.100590825,-10.423125,-6.8531594,-6.905495,-2.5726597
-1.0154883,0.57001466,7.822134,-6.012133,-9.375844,-1.991558
-12.794195,-1.7483643,20.77919,-2.7012913,-7.292719,-0.6109752
-8.732242,-17.368683,44.240803,0.53338426,3.1671126,1.4135599
11.802657,-24.012466,-19.687061,1.5304719,0.90395826,1.067349
8.238868,-13.675562,-31.159204,-5.509861,-6.677529,-0.75105745
-2.6297317,-18.048868,9.489068,-4.2853394,-3.924353,-0.9827525
-12.880416,-10.083033,-14.121036,-3.8842676,-2.3536205,0.5799905
-2.1459377,-5.604346,-16.343615,-6.968741,-5.2383566,2.4729655
-3.4775686,-13.852794,-12.353511,-8.53681,1.6810688,2.9166481
29.870686,-89.17616,2.7973828,-5.689358,10.220761,3.192019
6.662945,-39.36933,36.950363,-6.2741885,-2.0654664,-3.7955832
-20.61154,-10.312955,4.253555,-4.947934,-0.36104327,-1.1569232
-11.261382,-0.732876,7.3000197,-4.3647017,1.095706,-0.41390127
9.580078,-1.7723145,14.226417,-0.9755628,-2.063336,0.36427444
15.529307,-6.346802,23.11673,1.7483184,0.14495736,-1.7864945
-4.775669,-4.6271777,3.1039455,2.0449946,-0.36317378,-2.3638678
-10.98356,2.7303224,-0.86220706,2.0769525,-1.3879582,-0.29139584
-3.9182522,1.8729054,6.2893214,4.868478,1.4296664,1.1983765
1.2502003,-1.9447559,1.4705421,5.1268044,2.894405,1.2313997
2.6967921,-9.944121,3.056045,5.7105694,3.9127977,1.5680232
13.215718,-32.471676,8.50711,7.6078053,4.646765,1.6271454
15.328126,-49.078743,12.899576,6.994213,3.533031,0.2529543
-22.517975,-61.848988,12.21939,8.876536,-0.41057807,1.8316762
-10.93087,-58.917484,1.0202783,10.074959,2.0927935,2.9853575
0.364043,-29.25277,-6.720425,9.379341,4.057674,1.019412
9.2256155,12.487633,-13.555811,5.3952513,4.302685,0.048956156
6.672525,21.315674,-13.292359,3.0442126,5.609764,-0.5039161
5.7145166,2.811753,-12.276871,0.80396146,4.60522,-0.7004574
3.5110989,-0.2203418,-31.690899,-1.095405,3.2992053,-0.984883
13.560601,-2.4956105,-23.394552,-3.485326,-4.2354097,-2.0149937
-0.20118165,0.17723145,-10.413546,-6.0339713,-7.3369274,-2.1364338
-0.16286133,0.7711963,5.824688,-5.9876323,-9.433901,-1.9441537
-8.775352,1.5471827,19.878662,-3.5103598,-9.4408245,-1.2639823
-13.34505,-11.112891,18.973345,-1.4432138,-1.0305619,0.9102225
5.3073635,-25.071066,6.476133,2.9771008,3.780705,1.9041142
17.498013,-17.895586,-32.73034,-1.7334985,-3.7224853,0.63538426
-0.6179151,-15.510147,-8.799302,-5.482697,-6.0410333,-0.5198951
-14.111456,-11.050621,-13.043277,-4.399323,-3.8710897,-0.1140293
-6.878496,-8.923843,-9.934542,-6.505883,-4.6950717,2.3121104
1.341211,-8.756192,-13.35942,-7.4976444,-1.659068,3.1952147
4.608018,-49.84036,-13.129498,-6.45262,5.8654275,3.9744556
32.09326,-59.439598,29.650343,-6.73385,0.78677917,-2.82566
-19.816393,-18.403332,24.941734,-5.976447,-1.8524134,-2.0458865
-15.682589,-8.823253,5.9061184,-5.3106565,1.0216701,-0.6178994
-0.3305127,-4.8044095,4.018843,-2.6576154,-0.12295664,-0.09059349
15.89814,-0.5221143,29.909006,0.661216,-0.08300923,-0.18220624
3.7937112,-4.641548,6.318062,2.1041167,0.40115345,-2.5859754
-9.077125,-0.2921924,-6.600674,1.2875916,-1.1189789,-1.4189782
-7.975415,3.8464015,8.095166,3.5821712,1.0200721,0.63431895
-0.85741705,-1.9160157,2.3998096,5.975288,3.6624606,1.303305
-0.24908204,-5.695357,6.337222,5.467689,4.2792487,1.4385936
3.4296682,-19.232008,15.160474,6.6820908,3.0073228,2.4468665
12.937896,-41.759563,9.82437,6.856794,1.2922472,1.8417963
2.2417383,-59.77969,14.106666,8.571338,2.624893,-0.24452421
-12.660074,-60.488617,3.1949563,9.438995,0.61793476,2.4713676
-3.9374123,-46.61666,-4.967271,9.668028,2.210505,2.1571145
5.733677,-7.213799,-13.043277,7.799553,3.6832333,0.6700053
10.791959,20.041525,-13.177398,4.0189295,5.984205,-0.37288857
1.8776954,11.706856,-11.979888,2.3390074,5.2688794,-0.37714964
7.094048,1.5328126,-27.600206,-0.037597466,5.382863,0.01859612
16.880098,0.78556645,-39.350174,-3.69252,-2.276389,-1.9068694
4.071533,-0.6179151,-20.290606,-7.147705,-6.5156083,-2.829921
-0.28261232,-1.705254,-0.4742139,-7.6510425,-9.518589,-1.9260441
-4.2152348,-0.38320315,17.943487,-5.321309,-10.144964,-1.1931422
-11.783497,-16.099321,31.197525,0.18930386,1.3305968,1.6223518
4.1960745,-24.941734,22.738316,2.96272,3.7189195,1.8556447
16.722027,-23.10715,-34.009277,-3.0863843,-4.6391454,0.24443218
0.7232959,-16.789087,-10.653048,-4.907454,-4.471366,-0.737209
-8.823253,-4.9289503,-7.932305,-4.3535166,-3.8902645,-0.6439984
-7.3383403,-4.152964,-11.984678,-6.17139,-4.7025285,1.6889307
-4.3397756,-10.289004,-18.671574,-9.020439,-0.20604727,2.8740375
1.8537452,-52.53715,-11.984678,-6.717338,6.402321,4.248229
33.741035,-68.22932,27.159523,-6.338637,2.6270235,-2.0224507
-18.11114,-20.76961,28.361822,-6.248622,-2.6790588,-3.2102203
-19.150578,-4.2296047,2.8596535,-4.7849483,0.8576193,-0.79633117
-2.2896388,-4.517007,4.1098537,-2.5217943,-0.8846207,0.20395213
19.49546,-3.1422658,28.654015,1.9587082,-0.25025576,-0.11935563
5.513335,-4.047583,4.87626,1.8814765,-1.1807642,-2.2504172
-7.7790236,-0.16765137,-3.66438,1.6199541,-1.6782427,-1.6187154
-7.0126176,3.8272414,6.821016,3.7094703,0.9439057,0.3855797
-0.20597169,-0.8286768,5.1780324,5.373413,3.1005335,1.158429
2.806963,-5.2115626,4.8427296,4.799236,3.309858,1.0652184
9.829161,-20.089424,14.288687,6.7188425,3.7711174,1.397581
16.305294,-39.35496,7.0030375,7.3745127,4.4241247,0.9650836
-0.8143067,-54.275936,16.080162,8.3716,3.1569924,0.110741496
-13.191768,-58.989334,4.4451566,9.541261,1.2725399,3.4849668
-2.44771,-46.4059,-6.1599903,9.697322,3.2454095,2.6332877
4.6654983,-15.8215,-12.942686,7.8655996,4.3916345,0.44523454
6.8497562,15.069464,-13.37379,4.1435657,5.433463,-0.47515395
1.3603711,14.580879,-14.010865,2.5025256,4.7761946,-0.4660992
3.7314405,2.7638526,-31.437027,-0.5132381,3.61985,-0.36543173
14.691051,-1.0394385,-35.058296,-4.0174255,-2.9405813,-1.5207111
5.364844,-0.9053174,-15.313756,-6.8355827,-5.637298,-2.5753229
0.23471193,0.1580713,3.6116896,-6.8883133,-8.494337,-2.1311076
-6.476133,0.8765772,23.475983,-3.9087687,-9.862669,-1.4876878
-17.986597,-9.086704,23.432873,-1.0772955,-2.6620145,0.86388344
2.0213966,-24.1897,5.3217335,3.052202,2.8890786,1.9792154
10.96919,-26.019493,-28.883936,-3.5700145,-6.4245286,0.3392407
0.44547364,-20.075054,-6.476133,-5.212652,-5.62558,-0.28820005
-8.152647,-5.388794,-15.8310795,-4.381213,-3.757639,0.3259249
-1.8681153,-5.0630717,-15.591578,-6.2480893,-4.552326,1.9493879
0.71371585,-10.504556,-16.621437,-8.665174,-0.3354769,2.6348855
8.48316,-63.060867,-8.765772,-6.0946913,6.042794,4.2658057
33.937428,-64.74217,23.20295,-6.6150727,2.3873389,-1.8924884
-19.711012,-18.254839,24.41004,-6.3466263,-1.1418821,-1.8797052
-13.177398,-6.6677346,5.1397123,-5.2643175,0.8219329,-0.6392047
0.34967285,-3.8895118,5.973179,-2.6043522,-0.7237658,0.12139414
21.339624,-1.2933106,33.879948,1.3365937,0.57319367,-0.27808005
1.4178516,-4.4212065,6.6246243,2.0939968,0.902893,-2.2685268
-10.830278,3.0177248,-1.719624,1.7813417,-1.3975456,-0.30524427
-5.9252787,3.1039455,7.7454934,4.262875,1.2054281,1.0833279
1.3795313,-2.7111623,3.1326857,5.54066,3.5309005,1.0417826
0.977168,-6.744375,7.1563187,5.1699476,4.203615,1.1978439
5.767207,-18.748213,10.375225,6.1478605,2.749529,1.9584427
11.860137,-31.872921,8.789722,6.5521283,0.9998321,1.6026443
-3.1231055,-59.482708,10.614727,8.885591,4.1247854,0.24230164
-10.207574,-59.875492,5.9204884,9.701583,1.460559,2.8127847
-8.267608,-51.13367,0.06706055,10.011043,2.188667,2.7659132
5.125342,-7.568262,-14.64794,7.0602593,4.5647397,0.30302173
8.943004,12.798985,-12.722344,4.074856,5.8734174,-0.75798166
4.378096,16.951948,-12.703184,3.265255,5.5096292,-0.8048533
7.846084,2.059717,-18.106348,1.1533682,4.540239,-0.3601054
10.815908,0.28740236,-33.98533,-2.343895,-1.0944778,-1.9121957
5.977969,-0.3544629,-19.615211,-6.506416,-6.117732,-3.3380523
0.68018556,-1.7962648,3.1278956,-7.3623557,-9.425379,-2.5827796
-3.9134622,0.11496094,19.150578,-5.040612,-11.258166,-2.1183243
-19.47151,-2.548301,23.02093,-1.6285698,-8.549198,-0.49273083
-4.9002104,-19.002087,26.714048,1.945925,5.035054,2.1059818
17.598604,-23.28438,-28.697124,-2.5963628,-4.8601875,1.1142206
2.9985645,-26.393116,-3.4488282,-4.9250307,-5.485498,-0.41709706
-5.829478,-9.74294,-8.962164,-3.5710797,-3.2377899,-0.62535626
-1.346001,-3.923042,-16.132853,-6.175119,-5.709736,1.1573638
2.184258,-6.8593364,-19.102676,-8.860117,-3.7336705,1.9035816
1.7339942,-31.173576,-7.549102,-9.044941,3.370578,2.8623195
48.72907,-88.69237,23.816074,-4.685346,6.975966,1.411962
-0.10538086,-32.62975,28.404932,-6.959153,-1.8364345,-4.260571
-20.051104,-6.9216065,5.647456,-4.7615128,-0.43667704,-1.2943423
-14.825171,-1.8824854,3.6500099,-3.2387173,-0.15065353,0.14536259
1.8776954,2.3710694,27.672056,0.7464372,0.41979557,0.12885098
10.169253,-6.4042826,15.85982,1.8543123,-1.441754,-1.0434725
-1.829795,-2.3902297,-8.794512,1.5666908,-2.4175363,-1.4914162
-4.018843,3.4871485,5.134922,2.9419472,0.882653,-0.19871783
0.30177248,0.8813672,6.6581545,5.4383945,3.0280955,1.2521724
3.3673975,-4.5649076,6.1552005,4.7294607,4.1876364,1.0806648
1.4705421,-10.332115,7.5012016,5.660502,3.5287697,1.5536422
7.204219,-26.000334,5.958809,6.321499,2.572695,2.0750892
13.737833,-45.826305,10.130933,7.705277,3.495214,1.659636
-17.004639,-60.479034,8.626861,8.706094,1.5596286,1.9973248
-9.632769,-52.944305,2.1028273,9.094382,2.048585,2.9017344
0.019160157,-34.790054,-6.605464,8.787586,3.4861593,0.91821194
9.273516,5.5516553,-13.632452,5.6162934,4.966877,0.4100808
9.81,19.658321,-13.531861,3.7131987,6.3538513,-0.31642956
9.302257,6.806646,-13.196558,1.3786716,4.887515,-0.8080491
6.950347,0.613125,-30.56045,-0.95905125,1.5095612,-2.2834404
11.342813,-1.2645704,-28.419304,-4.0424595,-4.552326,-3.1580224
-1.1783496,1.2166699,-4.373306,-6.711479,-7.6788774,-2.3793142
-1.8681153,2.1603076,9.905801,-5.4235744,-10.642976,-1.7055345
-12.693604,0.45984375,19.054777,-2.3699942,-9.477044,-0.6013878
-16.463366,-15.663428,39.393284,1.3573664,2.8352826,2.3179696
6.844966,-43.028923,-28.275602,2.0939968,0.15081632,2.29986
5.206773,-20.994741,-20.989952,-5.364985,-2.8883832,0.23058374
1.1543995,-1.5232325,-13.713882,-4.928759,-4.7893476,-0.35158327
6.4905033,-0.0047900393,-20.367247,-6.5559506,-6.0420985,0.05747827
-1.8585353,-10.001602,-17.929117,-9.513657,-3.9770834,1.1168838
-1.4322218,-35.31696,7.7598634,-9.049734,0.3537492,3.294817
45.28982,-83.46165,10.849439,-4.8589845,4.6211987,1.7864025
-9.043594,-27.154732,25.808731,-7.342116,-1.9291124,-3.5095599
-18.044079,-8.626861,3.9613624,-4.887214,-1.6617311,-1.0770284
-12.660074,-3.410508,5.9540186,-3.9066381,0.5923684,-0.1007135
18.240469,-1.9016455,32.8453,1.7845374,0.36173868,0.48731247
14.897022,-6.8497562,18.992506,2.465774,-0.19113357,-1.5020689
-1.7866846,-3.539839,-8.090376,1.8686934,-2.0553465,-2.0916927
-4.6942387,2.323169,8.056846,4.4706016,2.222223,0.28171644
-0.1580713,-2.8500733,3.6308498,5.776616,4.03264,0.902233
-1.575923,-5.470225,6.5000834,5.123076,3.3902855,0.9602899
-2.2656887,-14.70063,10.772799,6.250126,1.8259448,2.2210305
10.509346,-38.82327,8.004155,7.205668,0.60941267,2.043131
8.943004,-62.845314,14.451549,8.798772,3.398275,-0.65358573
-8.258028,-62.878845,3.774551,9.48853,0.33457443,1.1621575
0.45505372,-42.516388,-6.207891,9.616362,3.5649889,1.7304761
4.0906935,-13.603711,-11.208692,8.22779,4.2962933,1.0316626
13.50312,23.399342,-13.43127,4.1888394,6.773566,-0.1321388
2.5770411,9.77647,-15.275435,1.9432619,6.024685,-1.0930073
7.965835,-1.0825489,-23.18379,2.1942228E-4,5.128797,-1.0248305
11.443404,1.0346485,-32.399826,-3.0357842,-2.202353,-2.6275208
6.969507,2.2848487,-23.437662,-5.49548,-5.418386,-3.5830631
-0.06227051,-0.47900394,1.4944923,-6.7242627,-9.355603,-2.515668
-7.2425394,0.019160157,17.593815,-3.8581686,-9.97612,-1.7444166
-14.509029,-9.115445,17.263302,-0.9665081,-3.9856057,0.28224906
0.52690434,-23.705904,30.41675,2.117965,4.860883,1.659636
15.423926,-20.012785,-35.048717,-1.6221783,-2.4841154,0.7882497
-1.7962648,-15.706539,-22.340744,-5.1119847,-4.969377,-0.36063802
-7.553892,-9.74773,-2.5387208,-3.6392567,-1.9141988,-0.50125295
-6.605464,-5.738467,-15.016773,-5.5753746,-5.0269012,1.339524
-1.3172607,-8.310719,-17.818947,-8.463306,-4.300391,2.781892
-4.129014,-30.776003,-15.304175,-8.348258,3.7823029,3.5595353
40.130947,-83.90233,32.67286,-4.8675065,8.771469,0.5299231
-9.239985,-26.364376,32.739918,-6.013731,-3.4369946,-3.7977138
-23.2269,-9.70941,5.3792143,-5.110387,0.6413706,-2.540169
-5.2355127,-0.20597169,5.230723,-2.9931738,-3.9062433,-0.35264856
21.94317,-3.9517825,18.489552,1.2939831,-1.1823621,-0.018688135
12.602593,-5.5324955,15.591578,2.1866746,0.27438697,-1.5649195
-10.284214,-0.6849756,-3.271597,2.1829462,-0.12402191,-0.8724976
-10.490186,3.6164796,8.392149,3.9699273,1.4903864,1.2543029
0.244292,-1.5040723,4.248765,5.2455816,3.505334,2.2391398
2.8788135,-6.7779055,5.733677,4.888718,4.4805837,1.7714888
7.28565,-15.237115,6.3132715,5.627479,4.4507565,1.8636341
14.815592,-36.48573,11.635005,6.57876,3.6858964,1.5520443
-1.4513819,-53.45205,12.28645,8.302359,3.2976074,2.1192975
-8.943004,-59.113876,7.549102,9.464561,0.6142064,4.876202
0.43110353,-50.304993,-1.9974464,9.1961155,1.8152921,3.2500758
6.11209,-12.497212,-11.644586,7.1401544,3.5138562,0.069728814
11.079361,10.049502,-14.322217,3.7030785,6.4912705,-0.052243967
11.591895,11.558365,-18.41291,2.7928102,6.08647,-0.117225096
8.358619,9.3309965,-24.290289,0.13604064,2.4267538,-0.5092424
6.1743608,4.5409575,-29.736565,-1.8773091,-0.9703745,-1.2213718
7.673643,0.19160157,-17.794996,-4.9921427,-4.808522,-3.2347214
-0.5891748,1.5040723,-0.20118165,-6.139965,-6.5741982,-2.8134093
-8.238868,-0.39278322,19.49067,-3.614223,-8.969445,-2.1364338
-23.12152,-8.737032,19.006876,0.25641552,-4.4889426,-0.4176297
-8.258028,-12.066109,11.692486,1.9608387,6.402321,0.6151442
12.387041,-27.413395,18.432072,-0.18407133,-2.1874392,-0.9412072
4.5553274,-24.654331,-42.118816,-5.926379,-4.683886,-0.7728954
5.455855,-4.718189,-21.167183,-6.3673987,-5.090285,-0.6914027
0.9963282,0.09101075,-12.549903,-6.922402,-6.1827135,0.149091
-8.58854,-7.0126176,-10.801538,-7.4907203,-4.3216963,1.4327347
5.3792143,-72.36312,-19.682272,-6.4867086,5.686996,5.935608
34.30147,-58.7163,27.00624,-6.005209,0.6328485,-2.9742644
-8.799302,-16.496895,17.785416,-6.268329,-2.7035599,-3.8637602
-16.520845,-4.4403663,6.1408305,-5.2430124,-0.3898054,-1.882901
-4.5936475,-5.8342676,3.046465,-3.140713,-2.0787823,0.12778571
17.153131,-7.3383403,35.38402,0.8135488,1.506898,-0.28979796
-2.8644435,-5.120552,8.698711,2.7432754,-1.456135,-1.2906139
-7.223379,2.2225783,-9.182506,2.077485,-3.9318097,-0.3419959
-4.5840673,3.803291,4.9481106,4.0029507,-0.10058609,0.32326174
0.19639161,0.21076173,3.9469924,5.5246806,2.3101072,1.08173
1.719624,-6.543194,4.6271777,5.3148236,4.265933,1.520619
4.2104445,-18.432072,14.68626,6.438145,3.5910878,2.30998
9.263936,-37.132385,15.476617,6.9867563,1.3646852,1.7762824
-10.528506,-58.649242,12.4541025,7.720191,0.18437216,0.8281971
-6.2605815,-56.46498,3.5925295,8.693311,-0.674231,2.0905354
-3.4823585,-37.80778,-7.3527102,8.664548,2.8352826,0.015932959
7.582632,-13.105548,-10.94524,7.440559,5.5612946,0.0058129462
8.013736,18.37459,-9.034014,3.806942,6.375157,0.48518196
0.4981641,11.678116,-9.934542,1.941664,4.542902,0.33870807
6.6342044,1.22146,-17.785416,0.17705332,4.726127,0.5842515
6.337222,2.327959,-29.018059,-2.7257924,-0.6614478,-1.2820917
8.780142,-0.20118165,-24.036417,-5.785232,-6.192301,-2.9961023
-0.35925296,-0.1341211,-1.1304493,-6.9948397,-8.618973,-2.3255184
-4.790039,-1.7914747,19.370918,-3.9535096,-9.065319,-1.5942143
-14.221626,-12.20502,33.314724,0.8508331,-2.5379112,0.32645753
-0.71371585,-18.484762,-9.3309965,1.8074406,3.495214,1.2409871
3.4631984,-28.898308,-30.45986,-4.229413,-6.249825,-0.3451917
0.038320314,-17.18666,-11.064991,-5.455,-4.52889,-0.7798196
-3.9565725,-6.0210795,-15.079043,-5.741556,-4.5832186,-0.13853039
-0.732876,-1.8824854,-10.102193,-6.3695292,-4.3131742,1.2111597
-8.784932,-10.4566555,-8.406519,-7.8087015,1.1425775,3.0476756
10.514136,-65.63312,-10.806329,-5.8598003,6.2537165,5.4482493
30.752052,-65.11579,17.617764,-6.639574,1.9718859,-2.1683917
-19.265537,-17.363892,24.707022,-5.834234,-1.7970197,-1.9532084
-17.402212,-4.655918,4.148174,-5.4438148,0.5556168,-1.1654453
-0.50774413,-2.8644435,6.423443,-2.8829188,-2.438309,-0.06982083
25.693771,-7.831714,30.890963,1.0042312,-0.5698351,0.22685531
5.326524,-6.600674,10.236314,2.7315574,0.3058123,-1.9979495
-10.399176,0.71371585,-3.9948928,2.4593823,-1.6915585,-0.7888743
-7.5251517,3.8847218,6.5000834,4.121195,0.49809253,0.6929085
0.9244776,-2.43813,1.8681153,5.7888665,3.8281093,1.3698841
2.692002,-9.048384,2.4956105,5.588064,5.0797954,1.8220888
9.086704,-27.787018,7.702383,6.7571917,4.7026916,2.1784198
13.115128,-46.875324,6.11688,6.914318,3.8984165,0.5070199
-19.011665,-52.19227,9.493857,8.845111,1.1841229,1.726215
-7.065308,-55.502186,1.1160791,9.460834,0.6152716,3.7145312
2.3519094,-38.89991,-5.9875493,9.183332,2.5801518,1.5067706
6.11209,-2.6105714,-10.518927,6.56864,3.3961444,-0.08793032
6.974297,11.347603,-13.929434,3.8873694,5.7045727,-0.4394676
5.350474,7.2616997,-16.769928,1.9970577,6.0353374,0.18903843
7.697593,4.488267,-26.766739,-0.3124357,3.9612672,-0.26476422
16.080162,4.646338,-31.556778,-4.8057213,-4.907059,-2.6642723
2.1315675,0.6466553,-12.387041,-7.0528965,-6.5315876,-2.9961023
-1.9926564,-0.22992188,6.844966,-6.422793,-8.606723,-2.0762465
-8.411309,-1.1256592,23.696323,-3.0112832,-8.573167,-1.0562557
-13.263618,-12.133169,16.554377,-0.6916698,-0.73921216,0.82393605
3.8320315,-26.182354,33.635654,2.810387,4.4390388,1.3267409
11.04104,-34.15777,-37.66887,-0.7433352,-5.462062,0.36107865
2.6105714,-11.146421,-9.7142,-3.620082,-2.2332456,-1.3007339
-4.5313773,4.3062453,-7.510782,-3.6083639,-5.053533,-1.3332245
-8.789722,0.6706055,-21.536016,-6.562875,-7.1339946,0.96614885
-11.203902,-8.076006,-19.926563,-9.001265,-4.853796,2.9086585
-3.0799952,-41.050636,-9.79563,-7.310158,4.137036,5.386464
38.75142,-74.03006,16.544796,-3.6397893,5.8680906,0.4351145
15.059883,-38.425694,31.983091,-7.000166,-1.1306968,-2.9875803
-16.266973,-9.460327,5.005591,-4.7801547,-2.4958334,-1.230959
-12.636124,1.2454102,0.6658155,-3.8288736,0.81767184,-0.11988826
4.91937,-2.2177882,8.875943,-2.0967538,0.02191932,0.41647238
19.203268,-6.318062,24.079527,1.8937271,-0.54107296,-1.7300355
-3.8703518,-3.2189064,0.728086,1.6407267,-1.9738536,-2.4096742
-11.529625,0.82388675,-0.81909674,1.9773504,-2.198092,-0.7515901
-3.908672,0.9915381,4.4643164,4.5302563,1.1532302,0.7578896
1.1352394,-3.6979103,0.39757326,4.8871202,2.4331453,1.0236732
4.2439747,-9.77168,-0.5412744,5.149175,2.6461983,1.3432524
12.147539,-36.452198,0.19160157,7.156666,5.57461,1.009292
2.1315675,-39.10109,8.832832,5.752115,3.7721827,-0.81231016
-12.616963,-42.73194,10.691368,6.6938086,1.7817363,-0.3915307
-8.49274,-54.82679,4.9337406,8.352426,0.78890973,2.5304897
-1.2933106,-32.03578,-1.5184424,9.707442,2.6525898,0.55602205
7.3096,-8.5502205,-11.2374325,7.391024,4.6110787,-0.22694734
8.042476,13.780943,-8.818462,3.2370255,6.090731,-1.0562557
0.043110352,6.9886675,-5.130132,1.6188889,4.697898,-0.69779426
4.1864944,0.3879932,-16.501686,0.61221385,6.1583753,0.47346404
12.612173,6.0306597,-22.963448,-1.3681127,2.607316,-0.62269306
12.027788,6.05461,-30.162878,-5.0486016,-5.259129,-2.7180684
1.3843213,2.8309133,-6.576724,-6.5293193,-7.3342643,-2.505548
-1.1831397,0.16286133,5.0343313,-5.243545,-7.747054,-1.991558
-9.857901,-4.061953,26.302105,-2.2506845,-6.2487597,-0.72176266
-7.0030375,-24.170538,41.33325,2.6015952,3.6086648,1.3080988
-15.960411,-85.176476,68.91908,5.687134,8.846038,3.099341
17.852476,-39.604046,-63.947025,-0.27089038,-3.0748045,3.351276
16.540005,19.227217,-36.212696,-2.438171,-0.11177137,-3.588922
4.8571,19.888243,-21.555176,-8.927762,-10.13591,-4.228613
-11.338023,6.830596,8.109536,-7.0512986,-2.7243326,-2.7175357
-32.87404,-21.9767,-11.438614,-5.386823,-7.8988543,2.086807
-18.16862,-73.40735,-25.401579,-7.872085,-3.050836,10.670709
31.403498,-72.70801,18.393751,-1.2828915,12.76408,0.8111529
7.453301,-25.62192,34.17693,-6.635313,-3.5541735,-2.3675961
-12.818145,-5.4606447,15.811919,-4.0770802,-4.9283643,-2.4395015
-7.582632,3.9422023,4.138594,-3.7303367,-1.5381604,-0.37235594
15.160474,-4.4499464,2.4956105,-2.5644047,-1.7123312,-0.19658731
27.523565,-3.3338673,25.430319,-0.7497268,-1.220179,-1.8797052
-7.055728,-3.1039455,17.737514,1.1698798,0.47199354,-2.224851
-14.63357,2.687212,-3.6068995,1.9619039,0.5417684,0.41221133
-9.75252,3.539839,4.5792775,2.71185,-0.30778003,1.6543096
-1.0154883,-1.0298585,3.3578174,3.900685,0.7111454,1.8183604
3.7649708,-7.937095,0.26345217,4.4940376,1.110087,1.8758847
13.929434,-24.798033,6.3803325,6.1707635,3.3412833,1.4188862
17.368683,-37.175495,0.4167334,6.161709,4.5705986,-0.7973965
6.0210795,-43.167835,10.303374,5.4554386,1.0664111,-2.2067413
-23.543043,-58.208557,8.315508,7.226441,0.41926295,1.3837326
-4.636758,-47.038185,-0.71371585,9.421419,4.063,1.0913174
4.727769,-19.332598,-7.2904396,8.85523,5.221475,-0.71590376
6.6198344,5.613926,-11.338023,5.4586344,6.911517,-0.5715604
6.2031007,6.0402393,-7.917935,3.539028,6.5956664,-0.44532657
5.7767873,-3.0033545,-12.990586,1.9587082,4.0443583,-0.40697703
0.28261232,3.319497,-21.703669,0.017796285,2.5838802,-0.7297522
-1.6046631,4.86189,-21.239035,-1.1891483,-1.6617311,-1.1281611
7.3527102,-0.9532178,-13.531861,-3.0496328,-4.948072,-1.8674546
2.8979738,5.3121533,-8.669971,-4.53834,-5.4972157,-2.1018128
1.7962648,6.222261,0.87178713,-4.8818874,-6.303621,-2.1193895
-7.8269243,2.5818312,21.785099,-2.4754553,-7.4226813,-1.0487989
-17.785416,-15.055094,22.757477,0.91901,-0.0941945,1.1360586
0.5556446,-35.695374,22.259312,5.9902015,8.124853,2.2529883
-0.019160157,-41.017105,-29.29588,-2.5968955,-8.900736,2.0250218
11.112891,-32.529156,-14.317428,1.3371264,-1.3714465,-2.1055412
6.844966,2.3135889,-23.964567,-1.3723738,-0.607652,-2.3510847
0.9388477,8.732242,-12.27208,-5.3569956,-5.6410265,-1.7928861
-7.414981,2.5387208,-2.543511,-4.96125,-5.170712,-0.8495944
-14.178516,-11.098521,20.994741,-3.5045006,-6.1337113,2.8532648
-4.143384,-41.24703,-12.420572,-5.2105217,3.661928,6.7979393
23.327492,-50.827106,13.4743805,-4.052047,2.0453892,0.4462998
8.190968,-27.298433,10.389595,-3.90504,-0.70033,-1.4131193
-9.469908,-8.55501,8.981323,-4.5820155,-1.906742,0.014867694
-1.1400293,-1.1831397,7.079678,-3.6626925,-0.24173363,-0.059168186
2.9458742,2.318379,9.072334,-4.0413938,-0.7354837,-0.69033736
12.952266,-4.1864944,-4.9241605,-3.5204797,-3.8673613,-0.91564083
4.7804594,2.3423293,23.523882,0.19516282,-0.12881559,-0.86663866
-13.287569,-5.8965383,13.603711,1.5278087,0.7990297,1.2298018
-12.535533,-2.6536818,8.042476,2.5137107,-0.6167067,1.8013161
-5.9061184,-0.68018556,-1.6717237,2.061506,-2.7248652,2.2545862
9.211246,-8.090376,-3.8416114,3.4117289,-0.47502655,1.8119688
9.541759,-15.912511,-0.8765772,4.979265,0.7292549,0.41593975
15.634688,-34.991238,-8.770562,5.2908554,1.0989017,-0.6013878
4.5457473,-42.65051,-8.856783,3.9161315,0.079443604,-2.2424276
-26.091345,-33.357834,0.37362307,3.793626,2.3862736,-0.26689476
-17.248932,-32.155533,2.692002,5.6248155,1.6038371,0.31687015
-6.05461,-28.687546,-3.8464015,5.7393317,3.7242458,-1.0562557
1.8250049,-22.06771,3.4631984,5.6061735,4.612144,-1.6639891
-2.0166066,-11.084151,-4.3493557,4.842379,3.3583276,-0.9529251
0.20597169,-0.8669971,-4.143384,3.501211,3.4941487,-0.31323376
1.5040723,6.576724,-1.6477735,1.3914548,2.184406,-0.5651688
1.6477735,8.938213,-3.4248781,-0.022683764,1.8728163,-0.9167061
4.84752,13.723462,-7.8556643,-1.0192386,3.0834892,-0.7249585
6.08814,14.9305525,-8.981323,-1.7574669,2.236604,-0.7830154
3.9326222,9.536968,-7.8029737,-2.9127462,0.7111454,-1.5041994
-0.10538086,3.515889,-4.4499464,-3.2749362,0.5391052,-1.7279049
-1.710044,-2.7399025,3.3386574,-2.3332424,0.61580426,-1.5057973
-11.999048,-12.434942,26.89607,1.075604,0.15294684,-0.09698507
-16.357985,-25.075855,24.40525,3.8596725,0.13377209,1.804512
-9.484278,-19.63916,5.225933,3.412794,2.0288775,2.3078494
-3.0847852,-0.22992188,6.4186525,3.893761,3.1266325,1.4092989
12.420572,2.179468,-13.004956,2.9531324,0.15134895,0.680658
3.1997461,-5.484595,-18.915865,1.5411245,-5.9872375,0.095827796
-19.069147,-70.95485,3.4344583,5.84426,6.2989902,1.568556
22.484444,-63.12314,-24.2855,-0.89140695,-3.214887,1.5856001
3.6308498,-10.744058,-8.818462,-3.0991676,-6.9672804,-1.7641239
-8.061636,5.225933,12.5738535,-0.77422786,-4.762716,-1.3689108
-13.220509,-3.8464015,2.3327491,-1.157723,-2.9256675,0.6790601
0.5364844,-15.265855,6.0689797,-2.7673378,-3.530205,2.316904
9.211246,-17.373472,6.591094,-4.1654973,-2.6055555,0.5554894
8.056846,-12.660074,10.140513,-3.1417782,-1.3293686,-0.3851391
5.815108,-5.7767873,10.178833,-2.7353797,-1.4870278,-0.63228047
-0.7232959,-4.641548,9.077125,-3.1801276,-1.8321735,-0.53480875
-1.6669337,-5.7719975,8.56938,-3.0688076,-1.7229838,-0.12841038
-2.308799,-4.5601172,7.33355,-3.252033,-1.7304406,-0.42988023
-1.4418018,-1.096919,3.7458107,-2.936182,-1.4172529,0.10807834
-0.75203615,-0.31135255,3.0704153,-2.9255295,-1.7964871,0.47080088
-3.558999,-1.3220508,1.1543995,-2.6357775,-1.782106,0.69024533
-4.655918,-4.6654983,1.3699512,-2.1606696,-1.977582,1.2026376
-3.5254688,-6.7635355,-0.5604346,-1.5683824,-1.7687901,1.5334022
1.0585986,-7.6161623,-0.6322852,-1.5721109,-1.7229838,1.4966506
1.585503,-8.468789,-0.91010743,-1.6605278,-1.5552046,1.2239429
1.8010547,-6.7731156,-0.9436377,-1.7681196,-1.6047394,1.2095618
0.033530276,-4.8379397,0.009580079,-1.5295002,-1.6031415,1.0934479
-2.5530908,-3.3817677,0.34967285,-1.4868897,-1.7325712,1.262825
-1.8345851,-11.141631,-4.129014,-1.3691779,-2.3163362,0.09689306
-5.087022,-20.486998,-5.719307,-0.549457,-0.46490654,0.8383171
8.353828,-39.881866,-13.0241165,0.94564164,0.1769153,0.10328464
1.8872755,-25.899742,-8.847202,0.42419466,-0.22042835,-0.6061815
-14.762901,-16.04663,-0.5460645,0.74750245,2.36124,-1.4866226
-16.822618,-12.16191,2.668052,1.5421898,3.1410136,-0.86663866
-13.2492485,-12.712764,-0.5891748,2.1222262,1.192645,0.09209937
-6.1695704,-12.798985,-0.1101709,2.0402007,0.8480319,0.43777767
-2.787803,-15.438296,0.57959473,2.0497882,1.3630873,0.55122834
-0.364043,-14.925762,0.39757326,1.9299461,1.2405819,0.40102604
-1.0825489,-12.688814,1.22146,1.9219565,0.8198024,0.09476253
-2.5387208,-10.5764065,1.1400293,1.8495185,0.34895548,-0.0032418014
-2.6009912,-10.078242,-0.5508545,1.7674932,0.50981045,-0.056505024
-2.083667,-9.690249,-1.1975098,1.6870657,0.87040246,-0.107105084
-1.456172,-8.650811,-0.6706055,1.7296764,1.2826599,-0.059168186
-1.2454102,-7.6161623,-0.20118165,1.8005164,1.0909122,-0.06396187
-1.6908839,-6.983877,-0.41194338,1.6162256,0.8602824,-0.05490713
-2.562671,-6.638994,-0.17723145,1.3472464,0.5934337,-0.04798291
-2.3998096,-5.7911572,0.05269043,1.0931808,0.47678724,0.045227733
-1.8202149,-4.679868,0.71371585,0.87639946,0.7590823,0.09103411
-1.5423926,-4.430786,1.5950831,0.594637,1.0094196,0.1075457
-1.5088624,-5.8055277,1.9639161,0.32192928,1.04191,0.08357725
-1.2070899,-6.974297,1.9734962,0.10940903,0.93112254,-0.03679763
-1.0729688,-8.377779,1.8154249,-0.008835326,0.7883771,-0.25251368
-1.2406201,-9.153765,1.9878663,-0.09778491,0.6514906,-0.412836
-1.8250049,-9.493857,1.6525636,-0.15317866,0.542301,-0.49699187
-1.9926564,-9.532178,1.695674,-0.17821237,0.5401705,-0.5369393
-2.2944288,-9.369317,1.8345851,-0.23360613,0.5209957,-0.6035183
-2.668052,-9.125025,1.9351759,-0.3305452,0.54762733,-0.6642384
-2.7255323,-9.129815,1.8489552,-0.44080007,0.6882422,-0.67063
-2.064507,-8.756192,1.8729054,-0.58248025,0.8267266,-0.55078775
-1.1927198,-7.544312,2.1411476,-0.57608867,0.7564191,-0.3648991
-1.2789404,-6.710845,1.9399658,-0.46796432,0.5902379,-0.23174104
-1.6190332,-6.782696,1.4944923,-0.4067116,0.47998303,-0.11988826
-2.323169,-7.6449027,1.1783496,-0.3342736,0.4847767,-0.014427078
-2.926714,-8.813672,1.5088624,-0.26503143,0.5353768,0.027118236
-3.0847852,-10.729688,2.0261867,-0.13826495,0.5971621,0.007410843
-3.0081446,-11.951148,2.4045997,-0.07807752,0.42299137,-0.1502483
-2.692002,-11.194322,2.6536818,0.09822375,0.2248522,-0.2823411
-2.083667,-10.676997,2.548301,0.26227447,0.19129637,-0.3238864
-1.4465919,-10.083033,2.2177882,0.16000909,0.04215935,-0.35904014
-1.9160157,-9.278306,2.6009912,0.046025794,-0.07448711,-0.35637698
-2.069297,-8.933423,2.4333398,0.017263653,-0.04838813,-0.3036464
-1.8537452,-8.406519,2.083667,-0.08233857,-0.22415677,-0.27435163
-2.0213966,-8.171807,1.949546,-0.16063552,-0.33068323,-0.20404416
-2.3998096,-8.751402,2.8452833,-0.15743972,-0.2641042,-0.0676903
-2.792593,-9.642349,3.8224514,-0.04398905,-0.13787034,-0.012829182
-2.792593,-10.025552,4.7708793,0.06999424,-0.11922822,0.03244456
-3.180586,-9.287886,4.608018,0.048156325,-0.3514559,0.13364467
-3.3338673,-8.473579,4.2296047,0.08171215,-0.35092324,0.30621752
-2.8261232,-8.291558,2.8979738,0.113137454,-0.15012088,0.44523454
-2.193838,-8.717872,2.5147705,-0.051978536,-0.07342184,0.40795028
-1.6813037,-9.64714,3.0225148,-0.19951767,-0.16982828,0.30142382
-0.79993653,-10.106983,3.4679885,-0.3406652,-0.32642215,0.09529516
-0.41194338,-9.594449,4.1050634,-0.42109266,-0.54107296,-0.10657246
-0.7807764,-9.239985,3.8847218,-0.43281057,-0.62629414,-0.17794518
-1.2406201,-9.062755,3.4919386,-0.44878954,-0.41910017,-0.2099031
-1.1496094,-8.966953,3.0656252,-0.5063138,-0.28114843,-0.20777258
-1.3555812,-8.952583,2.926714,-0.68154985,-0.12455454,-0.15663989
-1.6765138,-9.148975,3.175796,-0.6692993,-0.12775034,-0.11988826
-1.9399658,-9.1202345,2.8452833,-0.69007194,-0.09525977,-0.087397695
-1.6429834,-9.311836,2.6776319,-0.75558573,-0.0329418,-0.056505024
-1.1975098,-9.398057,2.4525,-0.8088489,0.00487509,-0.07781031
-1.21188,-9.604029,2.0980372,-0.8450679,-0.10910821,-0.11083351
-1.2645704,-9.829161,1.7148341,-0.88395005,-0.18101355,-0.15237883
-1.4513819,-9.704619,1.4897022,-0.81630576,-0.17036091,-0.14119355
-1.6190332,-9.474698,0.8095166,-0.82749104,-0.22362414,-0.1140293
-1.7387843,-9.627979,0.6849756,-0.8450679,-0.3088453,-0.09059349
-1.6765138,-9.996812,0.22513184,-0.829089,-0.32322636,-0.0842019
-1.4322218,-10.619517,0.06227051,-0.8061858,-0.37915277,-0.12042089
-1.2837305,-10.648257,-0.17244141,-0.78967416,-0.49313605,-0.20617469
-1.3172607,-9.972861,-0.17723145,-0.73534566,-0.5234961,-0.24079578
-1.3603711,-9.436378,-0.2778223,-0.6511898,-0.44626442,-0.19072835
-1.4130616,-9.79563,-0.45026368,-0.63893926,-0.40525174,-0.13160618
-1.0777588,-10.643467,-0.74724615,-0.54626125,-0.51816976,-0.044787116
-0.41194338,-9.877061,-0.6514453,-0.565436,-0.41696966,-0.04798291
-0.43110353,-8.871153,-0.364043,-0.4876717,-0.2987253,-0.12255142
-1.2645704,-9.479487,-0.7376661,-0.5143033,-0.079813436,-0.10177876
-1.2837305,-9.910591,-0.7041358,-0.53933704,0.0959552,-0.037862897
-0.6227051,-9.422008,-0.6322852,-0.46476853,0.14389211,-0.032536574
-0.5604346,-9.321417,-1.0538087,-0.45038745,-0.012701773,-0.06289661
-1.0490186,-9.814791,-1.5136524,-0.5601097,-0.052116558,0.01859612
-0.6562354,-9.656719,-1.456172,-0.5473265,0.003277193,0.055347744
-0.6322852,-8.995694,-1.6621436,-0.5499897,-0.03773549,-0.06822293
-1.7339942,-9.354947,-1.6860938,-0.64905924,0.14122894,-0.2328063
-3.1853762,-9.857901,-1.3795313,-0.82749104,0.3260523,-0.24345894
-1.7723145,-9.848321,-0.33530274,-1.1220366,0.32498705,-0.046917643
-0.92926764,-9.82437,-1.0442286,-0.7619773,0.1470879,0.08943621
-0.22992188,-10.308165,-1.3651612,-0.51217276,0.08210676,0.034575086
-1.0202783,-10.394385,-1.0202783,-0.45411587,0.017658262,-0.07621241
-1.575923,-11.127261,-0.87178713,-0.42215794,0.05760568,-0.080473475
-1.0394385,-10.758429,-1.096919,-0.214964,0.17158897,-0.08366927
-0.76161623,-10.514136,-0.9484278,-0.035466935,0.19289427,-0.07621241
-0.41194338,-10.801538,-0.92926764,0.0907669,0.10820574,-0.043189216
-0.7711963,-8.770562,-1.7914747,0.08277742,-0.0478555,-0.104441926
-2.083667,-10.174044,-1.7483643,-0.09352385,-0.27369156,-0.21256627
-2.8979738,-8.962164,-2.059717,-0.15584183,-0.04732287,-0.0048396983
-1.7675245,-10.461446,-1.8202149,-0.015759544,0.00966878,0.0031497853
-0.79035646,-9.369317,-1.8058448,0.062004764,0.07518254,0.026585605
-1.3603711,-8.646021,-2.1555176,-0.13933022,-0.13893561,-0.0016439047
-1.3603711,-8.784932,-2.5818312,-0.4445285,-0.18420935,-0.04904817
-1.336421,-9.469908,-2.3854396,-0.6101771,-0.04039865,-0.012296549
-1.0346485,-9.867481,-2.9219239,-0.6165687,0.10980364,-0.039993424
0.60354495,-9.029224,-3.0991554,-0.4711601,0.06506253,-0.66849947
-2.088457,-10.174044,-2.8452833,-0.3704926,0.5092778,-0.52309084
0.5029541,-9.910591,-2.074087,-0.25065035,0.38517448,-0.026144987
0.6514453,-9.857901,-2.184258,-0.24106298,-0.042529177,-0.11988826
0.1820215,-9.144185,-2.4572902,-0.29113042,-0.23267888,-0.078342944
-0.8430469,-9.833951,-2.088457,-0.09618701,-0.48780975,-0.065559775
-1.5950831,-10.241104,-2.2369483,0.15308487,-0.49846238,0.044162467
-2.078877,-9.944121,-1.8250049,0.41407466,-0.38874015,0.1687984
-2.1076174,-10.394385,-2.193838,0.6590855,-0.26357156,0.5229988
0.37362307,-9.637559,-2.6345215,0.45881575,0.10074889,0.45056084
-1.1831397,-9.081915,-1.9974464,0.08810374,-0.32642215,-0.017622871
-1.21188,-10.015972,-2.1028273,0.125388,-0.4212307,0.13311204
-0.87178713,-10.485396,-1.9447559,0.2031523,-0.37382644,0.077718295
-1.3699512,-9.527389,-2.9985645,0.20048913,-0.42336124,-0.07674505
-0.63707525,-9.656719,-1.101709,0.2558829,-0.5346814,-0.014427078
-1.2837305,-9.5561285,-1.6908839,0.3565504,-0.53787714,-0.08686506
-1.4274317,-10.054293,-1.5807129,0.34909353,-0.2891379,0.092632
-0.6562354,-9.168135,-1.1543995,-0.013629016,-0.11816295,0.05907617
-0.3784131,-9.829161,-1.3699512,-0.27248827,0.111401536,0.059608802
-0.5221143,-9.3309965,-1.6429834,-0.2794125,0.20780797,0.024987707
-0.57959473,-9.857901,-2.083667,-0.1356018,0.40434924,0.102752015
0.038320314,-9.881851,-1.9160157,-0.050380636,0.6200653,0.1421668
-0.27303225,-9.75731,-1.8058448,-0.20910504,0.6962317,0.026052972
-1.590293,-9.987232,-0.98195803,-0.18407133,0.7494949,-0.05543976
-2.0166066,-10.442286,-1.7771046,-0.039727993,0.9108825,0.024987707
-1.7962648,-10.380015,-2.7782228,0.09289743,1.1164786,0.13044888
-1.1687696,-9.972861,-1.7483643,0.43484733,0.5465621,0.124589935
-1.1783496,-10.154883,-0.39757326,0.92327106,-0.5549214,0.02552034
-1.3555812,-9.560919,-1.2885206,1.0367218,-1.5450846,-0.09112612
-0.27303225,-9.278306,-3.4344583,0.15042171,-0.51124555,-0.05064607
-0.038320314,-10.389595,-1.8681153,-0.26023775,-0.3999254,0.0036824176
0.46942386,-11.644586,-2.567461,-0.2778146,-1.1567957,-0.16942306
-1.4705421,-10.97877,-2.9937747,-0.30817464,0.2765175,-0.26636213
-1.5088624,-11.390714,-0.8143067,-0.27728197,0.7937034,-0.31483167
-0.9244776,-11.951148,-1.8154249,-0.16596183,1.1617523,-0.5816804
-1.5088624,-11.625425,-0.5604346,-0.13027547,1.0152785,-0.5694299
-0.4167334,-10.873389,-0.76161623,-0.046119582,0.3867724,-0.74945956
-0.17244141,-11.06978,-0.4263135,0.03963421,0.10607521,-1.109519
-0.364043,-10.217154,-2.0022364,0.20048913,-0.5213656,-1.1148453
-1.575923,-9.843531,-2.4333398,0.3123419,-0.67369837,-1.0045904
-0.9580079,-9.704619,-2.4141798,0.30488506,-0.7328206,-0.9374787
0.3065625,-9.872271,-1.1352394,0.29636294,-0.9746356,-0.83255017
0.62749517,-9.862691,-0.9867481,0.21380495,-1.3080633,-0.8362786
0.5029541,-12.636124,-0.6658155,-0.27834722,-0.22096097,-1.0621147
0.20597169,-13.273199,-1.8202149,0.26120922,0.60408634,-0.6461289
1.0298585,-10.375225,-5.6522465,0.00927417,-0.25717998,-0.49699187
0.9053174,-8.51669,-3.6883302,-0.39233053,-0.15704511,-0.67648894
0.2682422,-7.941885,-1.9351759,-0.39818949,0.40914294,-0.8442681
1.0633887,-7.932305,0.852627,-0.13080812,0.20248164,-0.73774165
0.3161426,-8.080796,-1.0250684,0.11367008,-0.20018832,-0.7190995
1.695674,-8.353828,-0.74724615,0.089169,-0.49047288,-0.66370577
2.2896388,-10.054293,-2.4141798,0.039101575,-0.2987253,-0.78567857
1.829795,-11.170372,-2.42855,-0.20164819,-0.6273594,-0.71324056
3.9613624,-11.06978,-1.5807129,-0.3353389,-0.911785,-0.7436006
3.7314405,-11.965518,-2.2225783,-0.27035776,-1.1147178,-1.0562557
3.415298,-11.524835,-1.6142433,-0.20644188,-0.7834206,-1.2858202
2.6201515,-11.515254,-0.96758795,-0.14945024,-0.62682676,-1.4232394
4.2008643,-11.855348,-0.7089258,-0.24053034,-1.2920843,-1.2288285
3.4727786,-8.459209,-3.755391,-0.74013937,-0.5463993,-1.7449492
2.2656887,-10.356065,-5.9204884,-0.79127204,-0.78182274,-1.5979427
